Trial,Subject,Phase,Stimulus,Stimulus Type,Probe,Probe Type,Response,Accuracy,RT
6,PSE-165,Study,screwdriver,BW_Picture,none,none,none,-1,-1
7,PSE-165,Study,church,BW_Picture,none,none,none,-1,-1
10,PSE-165,Study,lemon,BW_Picture,none,none,none,-1,-1
15,PSE-165,Study,desk,BW_Picture,none,none,none,-1,-1
20,PSE-165,Study,ear,BW_Picture,none,none,none,-1,-1
22,PSE-165,Study,toothbrush,BW_Picture,none,none,none,-1,-1
28,PSE-165,Study,door,BW_Picture,none,none,none,-1,-1
29,PSE-165,Study,truck,BW_Picture,none,none,none,-1,-1
34,PSE-165,Study,squirrel,BW_Picture,none,none,none,-1,-1
42,PSE-165,Study,stove,BW_Picture,none,none,none,-1,-1
46,PSE-165,Study,peacock,BW_Picture,none,none,none,-1,-1
51,PSE-165,Study,strawberry,BW_Picture,none,none,none,-1,-1
52,PSE-165,Study,couch,BW_Picture,none,none,none,-1,-1
53,PSE-165,Study,bus,BW_Picture,none,none,none,-1,-1
54,PSE-165,Study,bear,BW_Picture,none,none,none,-1,-1
62,PSE-165,Study,bat,BW_Picture,none,none,none,-1,-1
63,PSE-165,Study,ball,BW_Picture,none,none,none,-1,-1
69,PSE-165,Study,kite,BW_Picture,none,none,none,-1,-1
75,PSE-165,Study,rabbit,BW_Picture,none,none,none,-1,-1
78,PSE-165,Study,racoon,BW_Picture,none,none,none,-1,-1
2,PSE-165,Study,shirt,BW_Word,none,none,none,-1,-1
3,PSE-165,Study,trumpet,BW_Word,none,none,none,-1,-1
4,PSE-165,Study,well,BW_Word,none,none,none,-1,-1
8,PSE-165,Study,snake,BW_Word,none,none,none,-1,-1
9,PSE-165,Study,glove,BW_Word,none,none,none,-1,-1
11,PSE-165,Study,tomato,BW_Word,none,none,none,-1,-1
12,PSE-165,Study,book,BW_Word,none,none,none,-1,-1
16,PSE-165,Study,belt,BW_Word,none,none,none,-1,-1
30,PSE-165,Study,barn,BW_Word,none,none,none,-1,-1
33,PSE-165,Study,refrigerator,BW_Word,none,none,none,-1,-1
38,PSE-165,Study,cow,BW_Word,none,none,none,-1,-1
39,PSE-165,Study,peanut,BW_Word,none,none,none,-1,-1
48,PSE-165,Study,orange,BW_Word,none,none,none,-1,-1
55,PSE-165,Study,asparagus,BW_Word,none,none,none,-1,-1
57,PSE-165,Study,clock,BW_Word,none,none,none,-1,-1
58,PSE-165,Study,celery,BW_Word,none,none,none,-1,-1
65,PSE-165,Study,bread,BW_Word,none,none,none,-1,-1
68,PSE-165,Study,camel,BW_Word,none,none,none,-1,-1
74,PSE-165,Study,car,BW_Word,none,none,none,-1,-1
80,PSE-165,Study,owl,BW_Word,none,none,none,-1,-1
1,PSE-165,Study,envelope,Colour_Picture,none,none,none,-1,-1
5,PSE-165,Study,house,Colour_Picture,none,none,none,-1,-1
13,PSE-165,Study,watermelon,Colour_Picture,none,none,none,-1,-1
14,PSE-165,Study,ring,Colour_Picture,none,none,none,-1,-1
19,PSE-165,Study,spool,Colour_Picture,none,none,none,-1,-1
23,PSE-165,Study,kangaroo,Colour_Picture,none,none,none,-1,-1
24,PSE-165,Study,tree,Colour_Picture,none,none,none,-1,-1
25,PSE-165,Study,salt,Colour_Picture,none,none,none,-1,-1
27,PSE-165,Study,clown,Colour_Picture,none,none,none,-1,-1
31,PSE-165,Study,stool,Colour_Picture,none,none,none,-1,-1
35,PSE-165,Study,hand,Colour_Picture,none,none,none,-1,-1
40,PSE-165,Study,leaf,Colour_Picture,none,none,none,-1,-1
43,PSE-165,Study,artichoke,Colour_Picture,none,none,none,-1,-1
49,PSE-165,Study,pitcher,Colour_Picture,none,none,none,-1,-1
56,PSE-165,Study,bow,Colour_Picture,none,none,none,-1,-1
59,PSE-165,Study,cherry,Colour_Picture,none,none,none,-1,-1
64,PSE-165,Study,chicken,Colour_Picture,none,none,none,-1,-1
72,PSE-165,Study,brush,Colour_Picture,none,none,none,-1,-1
76,PSE-165,Study,corn,Colour_Picture,none,none,none,-1,-1
77,PSE-165,Study,giraffe,Colour_Picture,none,none,none,-1,-1
17,PSE-165,Study,window,Colour_Word,none,none,none,-1,-1
18,PSE-165,Study,duck,Colour_Word,none,none,none,-1,-1
21,PSE-165,Study,train,Colour_Word,none,none,none,-1,-1
26,PSE-165,Study,dog,Colour_Word,none,none,none,-1,-1
32,PSE-165,Study,bottle,Colour_Word,none,none,none,-1,-1
36,PSE-165,Study,axe,Colour_Word,none,none,none,-1,-1
37,PSE-165,Study,saw,Colour_Word,none,none,none,-1,-1
41,PSE-165,Study,crown,Colour_Word,none,none,none,-1,-1
44,PSE-165,Study,pig,Colour_Word,none,none,none,-1,-1
45,PSE-165,Study,tie,Colour_Word,none,none,none,-1,-1
47,PSE-165,Study,glass,Colour_Word,none,none,none,-1,-1
50,PSE-165,Study,table,Colour_Word,none,none,none,-1,-1
60,PSE-165,Study,cannon,Colour_Word,none,none,none,-1,-1
61,PSE-165,Study,motorcycle,Colour_Word,none,none,none,-1,-1
66,PSE-165,Study,paintbrush,Colour_Word,none,none,none,-1,-1
67,PSE-165,Study,pen,Colour_Word,none,none,none,-1,-1
70,PSE-165,Study,leopard,Colour_Word,none,none,none,-1,-1
71,PSE-165,Study,lamp,Colour_Word,none,none,none,-1,-1
73,PSE-165,Study,fish,Colour_Word,none,none,none,-1,-1
79,PSE-165,Study,pear,Colour_Word,none,none,none,-1,-1
122,PSE-165,Test,none,BW_Picture,lightbulb,New,no,1,2639
133,PSE-165,Test,none,BW_Picture,lock,New,no,1,2867
138,PSE-165,Test,none,BW_Picture,violin,New,no,1,1328
142,PSE-165,Test,none,BW_Picture,shoe,New,no,1,2352
143,PSE-165,Test,none,BW_Picture,grapes,New,no,1,1514
146,PSE-165,Test,none,BW_Picture,sun,New,no,1,2320
147,PSE-165,Test,none,BW_Picture,pepper,New,no,1,1481
161,PSE-165,Test,none,BW_Picture,carrot,New,no,1,2232
162,PSE-165,Test,none,BW_Picture,grasshopper,New,no,1,1534
174,PSE-165,Test,none,BW_Picture,ruler,New,no,1,2160
176,PSE-165,Test,none,BW_Picture,star,New,no,1,1329
191,PSE-165,Test,none,BW_Picture,bell,New,no,1,1405
196,PSE-165,Test,none,BW_Picture,potato,New,no,1,1422
204,PSE-165,Test,none,BW_Picture,arrow,New,no,1,1804
210,PSE-165,Test,none,BW_Picture,hammer,New,no,1,2086
223,PSE-165,Test,none,BW_Picture,helicopter,New,no,1,1944
227,PSE-165,Test,none,BW_Picture,onion,New,no,1,1543
230,PSE-165,Test,none,BW_Picture,purse,New,no,1,1424
234,PSE-165,Test,none,BW_Picture,frog,New,no,1,1367
236,PSE-165,Test,none,BW_Picture,mountain,New,no,1,1439
87,PSE-165,Test,none,BW_Picture,ball,Old,yes,1,1102
103,PSE-165,Test,none,BW_Picture,kite,Old,no,0,1548
110,PSE-165,Test,none,BW_Picture,bus,Old,yes,1,919
115,PSE-165,Test,none,BW_Picture,rabbit,Old,no,0,2024
118,PSE-165,Test,none,BW_Picture,racoon,Old,yes,1,2390
127,PSE-165,Test,none,BW_Picture,truck,Old,no,0,1497
128,PSE-165,Test,none,BW_Picture,church,Old,yes,1,3425
139,PSE-165,Test,none,BW_Picture,toothbrush,Old,yes,1,1403
141,PSE-165,Test,none,BW_Picture,bear,Old,no,0,1386
144,PSE-165,Test,none,BW_Picture,door,Old,no,0,993
145,PSE-165,Test,none,BW_Picture,screwdriver,Old,yes,1,1680
154,PSE-165,Test,none,BW_Picture,desk,Old,no,0,1448
157,PSE-165,Test,none,BW_Picture,bat,Old,yes,1,1298
160,PSE-165,Test,none,BW_Picture,lemon,Old,yes,1,1312
168,PSE-165,Test,none,BW_Picture,stove,Old,no,0,1029
178,PSE-165,Test,none,BW_Picture,couch,Old,no,0,1118
187,PSE-165,Test,none,BW_Picture,squirrel,Old,yes,1,1250
193,PSE-165,Test,none,BW_Picture,ear,Old,no,0,974
195,PSE-165,Test,none,BW_Picture,strawberry,Old,no,0,1229
218,PSE-165,Test,none,BW_Picture,peacock,Old,no,0,1152
84,PSE-165,Test,none,BW_Word,bed,New,yes,0,1980
85,PSE-165,Test,none,BW_Word,wagon,New,no,1,1758
93,PSE-165,Test,none,BW_Word,dresser,New,no,1,2120
120,PSE-165,Test,none,BW_Word,lettuce,New,yes,0,2462
123,PSE-165,Test,none,BW_Word,banana,New,no,1,2200
135,PSE-165,Test,none,BW_Word,finger,New,no,1,1242
136,PSE-165,Test,none,BW_Word,thimble,New,no,1,1294
149,PSE-165,Test,none,BW_Word,doll,New,no,1,1207
159,PSE-165,Test,none,BW_Word,apple,New,no,1,2964
166,PSE-165,Test,none,BW_Word,rooster,New,no,1,1385
177,PSE-165,Test,none,BW_Word,mitten,New,no,1,2051
180,PSE-165,Test,none,BW_Word,suitcase,New,no,1,1392
183,PSE-165,Test,none,BW_Word,chisel,New,no,1,2192
184,PSE-165,Test,none,BW_Word,knife,New,no,1,1577
190,PSE-165,Test,none,BW_Word,alligator,New,no,1,1620
205,PSE-165,Test,none,BW_Word,pineapple,New,no,1,1349
207,PSE-165,Test,none,BW_Word,button,New,no,1,1341
225,PSE-165,Test,none,BW_Word,lobster,New,no,1,1287
237,PSE-165,Test,none,BW_Word,foot,New,no,1,1968
238,PSE-165,Test,none,BW_Word,nose,New,no,1,1334
82,PSE-165,Test,none,BW_Word,owl,Old,yes,1,1327
89,PSE-165,Test,none,BW_Word,camel,Old,no,0,1039
90,PSE-165,Test,none,BW_Word,clock,Old,no,0,1031
91,PSE-165,Test,none,BW_Word,tomato,Old,yes,1,968
94,PSE-165,Test,none,BW_Word,celery,Old,yes,1,958
100,PSE-165,Test,none,BW_Word,orange,Old,no,0,1391
108,PSE-165,Test,none,BW_Word,bread,Old,yes,1,968
130,PSE-165,Test,none,BW_Word,glove,Old,yes,1,1410
132,PSE-165,Test,none,BW_Word,car,Old,yes,1,1241
148,PSE-165,Test,none,BW_Word,asparagus,Old,yes,1,1576
153,PSE-165,Test,none,BW_Word,belt,Old,no,0,1117
164,PSE-165,Test,none,BW_Word,shirt,Old,yes,1,1398
169,PSE-165,Test,none,BW_Word,refrigerator,Old,no,0,1266
170,PSE-165,Test,none,BW_Word,trumpet,Old,yes,1,1505
188,PSE-165,Test,none,BW_Word,barn,Old,yes,1,1259
199,PSE-165,Test,none,BW_Word,cow,Old,yes,1,1371
212,PSE-165,Test,none,BW_Word,peanut,Old,no,0,1907
220,PSE-165,Test,none,BW_Word,book,Old,no,0,1284
226,PSE-165,Test,none,BW_Word,snake,Old,no,0,1039
229,PSE-165,Test,none,BW_Word,well,Old,yes,1,1481
88,PSE-165,Test,none,Colour_Picture,drum,New,no,1,2496
95,PSE-165,Test,none,Colour_Picture,watch,New,no,1,1663
97,PSE-165,Test,none,Colour_Picture,vase,New,no,1,1684
104,PSE-165,Test,none,Colour_Picture,umbrella,New,no,1,2566
106,PSE-165,Test,none,Colour_Picture,snail,New,no,1,2448
107,PSE-165,Test,none,Colour_Picture,sandwich,New,no,1,1381
114,PSE-165,Test,none,Colour_Picture,tiger,New,no,1,4235
124,PSE-165,Test,none,Colour_Picture,television,New,no,1,1768
150,PSE-165,Test,none,Colour_Picture,butterfly,New,no,1,1736
151,PSE-165,Test,none,Colour_Picture,eagle,New,no,1,1322
155,PSE-165,Test,none,Colour_Picture,sock,New,no,1,2404
167,PSE-165,Test,none,Colour_Picture,bicycle,New,yes,0,2040
171,PSE-165,Test,none,Colour_Picture,lips,New,no,1,1894
185,PSE-165,Test,none,Colour_Picture,horse,New,no,1,1906
197,PSE-165,Test,none,Colour_Picture,pumpkin,New,no,1,1805
198,PSE-165,Test,none,Colour_Picture,flag,New,no,1,1415
202,PSE-165,Test,none,Colour_Picture,coat,New,no,1,2221
206,PSE-165,Test,none,Colour_Picture,fox,New,no,1,1538
213,PSE-165,Test,none,Colour_Picture,box,New,no,1,2450
228,PSE-165,Test,none,Colour_Picture,cake,New,no,1,1544
101,PSE-165,Test,none,Colour_Picture,giraffe,Old,yes,1,785
112,PSE-165,Test,none,Colour_Picture,spool,Old,yes,1,1271
113,PSE-165,Test,none,Colour_Picture,house,Old,yes,1,1089
121,PSE-165,Test,none,Colour_Picture,chicken,Old,no,0,1307
129,PSE-165,Test,none,Colour_Picture,pitcher,Old,yes,1,1274
131,PSE-165,Test,none,Colour_Picture,corn,Old,no,0,1690
137,PSE-165,Test,none,Colour_Picture,leaf,Old,no,0,1248
140,PSE-165,Test,none,Colour_Picture,brush,Old,no,0,1345
152,PSE-165,Test,none,Colour_Picture,hand,Old,no,0,1000
172,PSE-165,Test,none,Colour_Picture,ring,Old,no,0,1343
173,PSE-165,Test,none,Colour_Picture,clown,Old,no,0,1591
181,PSE-165,Test,none,Colour_Picture,envelope,Old,yes,1,1222
182,PSE-165,Test,none,Colour_Picture,salt,Old,no,0,1218
192,PSE-165,Test,none,Colour_Picture,stool,Old,yes,1,1300
201,PSE-165,Test,none,Colour_Picture,watermelon,Old,no,0,1152
208,PSE-165,Test,none,Colour_Picture,kangaroo,Old,yes,1,1141
211,PSE-165,Test,none,Colour_Picture,artichoke,Old,no,0,1174
221,PSE-165,Test,none,Colour_Picture,tree,Old,no,0,1158
233,PSE-165,Test,none,Colour_Picture,bow,Old,yes,1,1264
235,PSE-165,Test,none,Colour_Picture,cherry,Old,no,0,1137
81,PSE-165,Test,none,Colour_Word,tortoise,New,no,1,2846
86,PSE-165,Test,none,Colour_Word,bird,New,no,1,1605
98,PSE-165,Test,none,Colour_Word,iron,New,no,1,1154
99,PSE-165,Test,none,Colour_Word,pencil,New,no,1,1524
111,PSE-165,Test,none,Colour_Word,goat,New,no,1,2376
116,PSE-165,Test,none,Colour_Word,sailboat,New,no,1,2647
134,PSE-165,Test,none,Colour_Word,dress,New,no,1,1799
156,PSE-165,Test,none,Colour_Word,sled,New,no,1,1505
165,PSE-165,Test,none,Colour_Word,sweater,New,no,1,1878
175,PSE-165,Test,none,Colour_Word,penguin,New,no,1,1311
179,PSE-165,Test,none,Colour_Word,deer,New,no,1,1756
189,PSE-165,Test,none,Colour_Word,flower,New,no,1,3481
194,PSE-165,Test,none,Colour_Word,guitar,New,no,1,2338
203,PSE-165,Test,none,Colour_Word,harp,New,no,1,1472
214,PSE-165,Test,none,Colour_Word,lion,New,no,1,1147
215,PSE-165,Test,none,Colour_Word,monkey,New,no,1,1617
219,PSE-165,Test,none,Colour_Word,balloon,New,no,1,2552
231,PSE-165,Test,none,Colour_Word,kettle,New,no,1,1696
232,PSE-165,Test,none,Colour_Word,heart,New,no,1,1553
240,PSE-165,Test,none,Colour_Word,basket,New,no,1,5009
83,PSE-165,Test,none,Colour_Word,saw,Old,no,0,1269
92,PSE-165,Test,none,Colour_Word,motorcycle,Old,yes,1,925
96,PSE-165,Test,none,Colour_Word,pear,Old,no,0,1614
102,PSE-165,Test,none,Colour_Word,leopard,Old,no,0,1160
105,PSE-165,Test,none,Colour_Word,paintbrush,Old,yes,1,3324
109,PSE-165,Test,none,Colour_Word,cannon,Old,yes,1,1218
117,PSE-165,Test,none,Colour_Word,crown,Old,no,0,1310
119,PSE-165,Test,none,Colour_Word,fish,Old,no,0,994
125,PSE-165,Test,none,Colour_Word,lamp,Old,no,0,1424
126,PSE-165,Test,none,Colour_Word,bottle,Old,no,0,1323
158,PSE-165,Test,none,Colour_Word,glass,Old,no,0,946
163,PSE-165,Test,none,Colour_Word,train,Old,no,0,1049
186,PSE-165,Test,none,Colour_Word,tie,Old,no,0,1272
200,PSE-165,Test,none,Colour_Word,table,Old,no,0,1101
209,PSE-165,Test,none,Colour_Word,axe,Old,no,0,1207
216,PSE-165,Test,none,Colour_Word,dog,Old,yes,1,1229
217,PSE-165,Test,none,Colour_Word,pen,Old,no,0,975
222,PSE-165,Test,none,Colour_Word,pig,Old,no,0,1030
224,PSE-165,Test,none,Colour_Word,duck,Old,no,0,1009
239,PSE-165,Test,none,Colour_Word,window,Old,yes,1,1321
8,PSE-166,Study,artichoke,BW_Picture,none,none,none,-1,-1
9,PSE-166,Study,eagle,BW_Picture,none,none,none,-1,-1
11,PSE-166,Study,vase,BW_Picture,none,none,none,-1,-1
16,PSE-166,Study,arrow,BW_Picture,none,none,none,-1,-1
20,PSE-166,Study,peacock,BW_Picture,none,none,none,-1,-1
28,PSE-166,Study,sled,BW_Picture,none,none,none,-1,-1
31,PSE-166,Study,table,BW_Picture,none,none,none,-1,-1
32,PSE-166,Study,ring,BW_Picture,none,none,none,-1,-1
37,PSE-166,Study,cannon,BW_Picture,none,none,none,-1,-1
39,PSE-166,Study,saw,BW_Picture,none,none,none,-1,-1
47,PSE-166,Study,guitar,BW_Picture,none,none,none,-1,-1
51,PSE-166,Study,pumpkin,BW_Picture,none,none,none,-1,-1
53,PSE-166,Study,chisel,BW_Picture,none,none,none,-1,-1
57,PSE-166,Study,pig,BW_Picture,none,none,none,-1,-1
58,PSE-166,Study,foot,BW_Picture,none,none,none,-1,-1
65,PSE-166,Study,belt,BW_Picture,none,none,none,-1,-1
67,PSE-166,Study,bottle,BW_Picture,none,none,none,-1,-1
73,PSE-166,Study,kettle,BW_Picture,none,none,none,-1,-1
77,PSE-166,Study,sailboat,BW_Picture,none,none,none,-1,-1
80,PSE-166,Study,flower,BW_Picture,none,none,none,-1,-1
2,PSE-166,Study,sun,BW_Word,none,none,none,-1,-1
12,PSE-166,Study,suitcase,BW_Word,none,none,none,-1,-1
15,PSE-166,Study,wagon,BW_Word,none,none,none,-1,-1
17,PSE-166,Study,cow,BW_Word,none,none,none,-1,-1
19,PSE-166,Study,tiger,BW_Word,none,none,none,-1,-1
22,PSE-166,Study,camel,BW_Word,none,none,none,-1,-1
24,PSE-166,Study,star,BW_Word,none,none,none,-1,-1
25,PSE-166,Study,mitten,BW_Word,none,none,none,-1,-1
33,PSE-166,Study,salt,BW_Word,none,none,none,-1,-1
35,PSE-166,Study,sock,BW_Word,none,none,none,-1,-1
38,PSE-166,Study,bed,BW_Word,none,none,none,-1,-1
41,PSE-166,Study,brush,BW_Word,none,none,none,-1,-1
42,PSE-166,Study,bear,BW_Word,none,none,none,-1,-1
43,PSE-166,Study,doll,BW_Word,none,none,none,-1,-1
54,PSE-166,Study,kangaroo,BW_Word,none,none,none,-1,-1
62,PSE-166,Study,lightbulb,BW_Word,none,none,none,-1,-1
68,PSE-166,Study,flag,BW_Word,none,none,none,-1,-1
69,PSE-166,Study,lips,BW_Word,none,none,none,-1,-1
70,PSE-166,Study,lock,BW_Word,none,none,none,-1,-1
76,PSE-166,Study,celery,BW_Word,none,none,none,-1,-1
1,PSE-166,Study,toothbrush,Colour_Picture,none,none,none,-1,-1
3,PSE-166,Study,helicopter,Colour_Picture,none,none,none,-1,-1
7,PSE-166,Study,bird,Colour_Picture,none,none,none,-1,-1
10,PSE-166,Study,tortoise,Colour_Picture,none,none,none,-1,-1
13,PSE-166,Study,squirrel,Colour_Picture,none,none,none,-1,-1
21,PSE-166,Study,monkey,Colour_Picture,none,none,none,-1,-1
30,PSE-166,Study,coat,Colour_Picture,none,none,none,-1,-1
34,PSE-166,Study,grapes,Colour_Picture,none,none,none,-1,-1
40,PSE-166,Study,thimble,Colour_Picture,none,none,none,-1,-1
45,PSE-166,Study,refrigerator,Colour_Picture,none,none,none,-1,-1
49,PSE-166,Study,glove,Colour_Picture,none,none,none,-1,-1
50,PSE-166,Study,racoon,Colour_Picture,none,none,none,-1,-1
52,PSE-166,Study,ruler,Colour_Picture,none,none,none,-1,-1
55,PSE-166,Study,fish,Colour_Picture,none,none,none,-1,-1
60,PSE-166,Study,glass,Colour_Picture,none,none,none,-1,-1
61,PSE-166,Study,nose,Colour_Picture,none,none,none,-1,-1
63,PSE-166,Study,asparagus,Colour_Picture,none,none,none,-1,-1
64,PSE-166,Study,frog,Colour_Picture,none,none,none,-1,-1
74,PSE-166,Study,crown,Colour_Picture,none,none,none,-1,-1
78,PSE-166,Study,dog,Colour_Picture,none,none,none,-1,-1
4,PSE-166,Study,tomato,Colour_Word,none,none,none,-1,-1
5,PSE-166,Study,giraffe,Colour_Word,none,none,none,-1,-1
6,PSE-166,Study,violin,Colour_Word,none,none,none,-1,-1
14,PSE-166,Study,peanut,Colour_Word,none,none,none,-1,-1
18,PSE-166,Study,cake,Colour_Word,none,none,none,-1,-1
23,PSE-166,Study,alligator,Colour_Word,none,none,none,-1,-1
26,PSE-166,Study,trumpet,Colour_Word,none,none,none,-1,-1
27,PSE-166,Study,shoe,Colour_Word,none,none,none,-1,-1
29,PSE-166,Study,sandwich,Colour_Word,none,none,none,-1,-1
36,PSE-166,Study,screwdriver,Colour_Word,none,none,none,-1,-1
44,PSE-166,Study,onion,Colour_Word,none,none,none,-1,-1
46,PSE-166,Study,fox,Colour_Word,none,none,none,-1,-1
48,PSE-166,Study,corn,Colour_Word,none,none,none,-1,-1
56,PSE-166,Study,barn,Colour_Word,none,none,none,-1,-1
59,PSE-166,Study,bread,Colour_Word,none,none,none,-1,-1
66,PSE-166,Study,apple,Colour_Word,none,none,none,-1,-1
71,PSE-166,Study,box,Colour_Word,none,none,none,-1,-1
72,PSE-166,Study,cap,Colour_Word,none,none,none,-1,-1
75,PSE-166,Study,pear,Colour_Word,none,none,none,-1,-1
79,PSE-166,Study,carrot,Colour_Word,none,none,none,-1,-1
81,PSE-166,Test,none,BW_Picture,window,New,no,1,31381
88,PSE-166,Test,none,BW_Picture,ball,New,no,1,1396
91,PSE-166,Test,none,BW_Picture,couch,New,no,1,1714
98,PSE-166,Test,none,BW_Picture,snake,New,no,1,2540
107,PSE-166,Test,none,BW_Picture,truck,New,no,1,1024
108,PSE-166,Test,none,BW_Picture,clock,New,no,1,1010
111,PSE-166,Test,none,BW_Picture,stove,New,no,1,946
139,PSE-166,Test,none,BW_Picture,barrel,New,no,1,1298
149,PSE-166,Test,none,BW_Picture,spool,New,yes,0,1943
152,PSE-166,Test,none,BW_Picture,harp,New,no,1,1394
171,PSE-166,Test,none,BW_Picture,hammer,New,yes,0,2005
175,PSE-166,Test,none,BW_Picture,bowl,New,no,1,1788
197,PSE-166,Test,none,BW_Picture,leaf,New,no,1,1092
204,PSE-166,Test,none,BW_Picture,car,New,no,1,1082
215,PSE-166,Test,none,BW_Picture,cherry,New,no,1,1684
218,PSE-166,Test,none,BW_Picture,caterpillar,New,no,1,1178
221,PSE-166,Test,none,BW_Picture,lobster,New,no,1,2118
222,PSE-166,Test,none,BW_Picture,lion,New,no,1,1529
227,PSE-166,Test,none,BW_Picture,chicken,New,no,1,1171
234,PSE-166,Test,none,BW_Picture,knife,New,yes,0,1053
92,PSE-166,Test,none,BW_Picture,bottle,Old,no,0,1282
96,PSE-166,Test,none,BW_Picture,sled,Old,no,0,2569
101,PSE-166,Test,none,BW_Picture,kettle,Old,no,0,1208
110,PSE-166,Test,none,BW_Picture,flower,Old,no,0,868
115,PSE-166,Test,none,BW_Picture,belt,Old,no,0,916
128,PSE-166,Test,none,BW_Picture,pig,Old,yes,1,1168
131,PSE-166,Test,none,BW_Picture,foot,Old,no,0,1234
136,PSE-166,Test,none,BW_Picture,sailboat,Old,no,0,922
142,PSE-166,Test,none,BW_Picture,ring,Old,yes,1,935
146,PSE-166,Test,none,BW_Picture,arrow,Old,no,0,1500
148,PSE-166,Test,none,BW_Picture,vase,Old,yes,1,914
153,PSE-166,Test,none,BW_Picture,chisel,Old,no,0,1134
154,PSE-166,Test,none,BW_Picture,guitar,Old,yes,1,1187
183,PSE-166,Test,none,BW_Picture,pumpkin,Old,no,0,1502
201,PSE-166,Test,none,BW_Picture,cannon,Old,yes,1,1780
213,PSE-166,Test,none,BW_Picture,eagle,Old,yes,1,1540
214,PSE-166,Test,none,BW_Picture,saw,Old,yes,1,1378
219,PSE-166,Test,none,BW_Picture,peacock,Old,yes,1,1148
230,PSE-166,Test,none,BW_Picture,artichoke,Old,yes,1,978
235,PSE-166,Test,none,BW_Picture,table,Old,yes,1,2630
89,PSE-166,Test,none,BW_Word,penguin,New,no,1,2306
99,PSE-166,Test,none,BW_Word,umbrella,New,yes,0,2835
100,PSE-166,Test,none,BW_Word,mountain,New,no,1,1018
102,PSE-166,Test,none,BW_Word,sweater,New,no,1,1059
114,PSE-166,Test,none,BW_Word,clown,New,no,1,1428
116,PSE-166,Test,none,BW_Word,balloon,New,yes,0,4330
117,PSE-166,Test,none,BW_Word,snail,New,no,1,1181
126,PSE-166,Test,none,BW_Word,basket,New,no,1,1057
127,PSE-166,Test,none,BW_Word,bus,New,no,1,930
134,PSE-166,Test,none,BW_Word,finger,New,no,1,921
140,PSE-166,Test,none,BW_Word,dress,New,no,1,922
179,PSE-166,Test,none,BW_Word,boot,New,yes,0,1499
180,PSE-166,Test,none,BW_Word,church,New,yes,0,1458
181,PSE-166,Test,none,BW_Word,pencil,New,no,1,1260
185,PSE-166,Test,none,BW_Word,door,New,yes,0,1576
188,PSE-166,Test,none,BW_Word,rooster,New,yes,0,1434
189,PSE-166,Test,none,BW_Word,kite,New,no,1,2940
196,PSE-166,Test,none,BW_Word,pepper,New,no,1,1237
202,PSE-166,Test,none,BW_Word,pitcher,New,no,1,1131
239,PSE-166,Test,none,BW_Word,pen,New,no,1,1490
87,PSE-166,Test,none,BW_Word,kangaroo,Old,no,0,1483
104,PSE-166,Test,none,BW_Word,salt,Old,no,0,914
113,PSE-166,Test,none,BW_Word,celery,Old,yes,1,1178
122,PSE-166,Test,none,BW_Word,lightbulb,Old,yes,1,1210
123,PSE-166,Test,none,BW_Word,camel,Old,yes,1,850
132,PSE-166,Test,none,BW_Word,doll,Old,no,0,842
143,PSE-166,Test,none,BW_Word,wagon,Old,no,0,875
144,PSE-166,Test,none,BW_Word,bear,Old,yes,1,1022
151,PSE-166,Test,none,BW_Word,lips,Old,no,0,1105
158,PSE-166,Test,none,BW_Word,flag,Old,yes,1,1180
168,PSE-166,Test,none,BW_Word,sun,Old,no,0,1573
174,PSE-166,Test,none,BW_Word,lock,Old,yes,1,972
176,PSE-166,Test,none,BW_Word,sock,Old,yes,1,867
182,PSE-166,Test,none,BW_Word,bed,Old,no,0,1388
186,PSE-166,Test,none,BW_Word,tiger,Old,no,0,1074
203,PSE-166,Test,none,BW_Word,brush,Old,no,0,834
220,PSE-166,Test,none,BW_Word,star,Old,no,0,850
224,PSE-166,Test,none,BW_Word,mitten,Old,no,0,831
229,PSE-166,Test,none,BW_Word,cow,Old,no,0,858
233,PSE-166,Test,none,BW_Word,suitcase,Old,yes,1,1228
84,PSE-166,Test,none,Colour_Picture,well,New,no,1,1995
94,PSE-166,Test,none,Colour_Picture,watermelon,New,no,1,1466
106,PSE-166,Test,none,Colour_Picture,watch,New,no,1,1018
121,PSE-166,Test,none,Colour_Picture,candle,New,no,1,1531
125,PSE-166,Test,none,Colour_Picture,envelope,New,no,1,1092
138,PSE-166,Test,none,Colour_Picture,train,New,no,1,1550
141,PSE-166,Test,none,Colour_Picture,purse,New,no,1,1050
161,PSE-166,Test,none,Colour_Picture,duck,New,yes,0,1766
167,PSE-166,Test,none,Colour_Picture,tie,New,no,1,2334
169,PSE-166,Test,none,Colour_Picture,stool,New,yes,0,2629
190,PSE-166,Test,none,Colour_Picture,bell,New,no,1,1768
191,PSE-166,Test,none,Colour_Picture,deer,New,yes,0,1085
193,PSE-166,Test,none,Colour_Picture,goat,New,no,1,1258
206,PSE-166,Test,none,Colour_Picture,iron,New,no,1,1586
210,PSE-166,Test,none,Colour_Picture,leopard,New,yes,0,1180
212,PSE-166,Test,none,Colour_Picture,axe,New,no,1,988
223,PSE-166,Test,none,Colour_Picture,butterfly,New,no,1,1154
226,PSE-166,Test,none,Colour_Picture,dresser,New,no,1,2328
231,PSE-166,Test,none,Colour_Picture,desk,New,no,1,1988
232,PSE-166,Test,none,Colour_Picture,lemon,New,no,1,1224
82,PSE-166,Test,none,Colour_Picture,asparagus,Old,yes,1,1275
85,PSE-166,Test,none,Colour_Picture,frog,Old,yes,1,1062
90,PSE-166,Test,none,Colour_Picture,monkey,Old,no,0,1785
93,PSE-166,Test,none,Colour_Picture,ruler,Old,yes,1,1384
95,PSE-166,Test,none,Colour_Picture,toothbrush,Old,yes,1,1057
112,PSE-166,Test,none,Colour_Picture,racoon,Old,yes,1,964
118,PSE-166,Test,none,Colour_Picture,dog,Old,yes,1,881
119,PSE-166,Test,none,Colour_Picture,crown,Old,yes,1,1573
155,PSE-166,Test,none,Colour_Picture,refrigerator,Old,yes,1,1839
157,PSE-166,Test,none,Colour_Picture,grapes,Old,yes,1,2823
173,PSE-166,Test,none,Colour_Picture,glass,Old,no,0,1276
192,PSE-166,Test,none,Colour_Picture,fish,Old,yes,1,1066
194,PSE-166,Test,none,Colour_Picture,nose,Old,yes,1,1070
198,PSE-166,Test,none,Colour_Picture,tortoise,Old,yes,1,1129
200,PSE-166,Test,none,Colour_Picture,squirrel,Old,yes,1,867
205,PSE-166,Test,none,Colour_Picture,coat,Old,yes,1,934
209,PSE-166,Test,none,Colour_Picture,thimble,Old,yes,1,883
211,PSE-166,Test,none,Colour_Picture,bird,Old,yes,1,2379
237,PSE-166,Test,none,Colour_Picture,helicopter,Old,no,0,1021
238,PSE-166,Test,none,Colour_Picture,glove,Old,no,0,1014
83,PSE-166,Test,none,Colour_Word,rabbit,New,no,1,2094
86,PSE-166,Test,none,Colour_Word,bicycle,New,no,1,1540
103,PSE-166,Test,none,Colour_Word,bow,New,no,1,1186
105,PSE-166,Test,none,Colour_Word,ear,New,no,1,938
109,PSE-166,Test,none,Colour_Word,banana,New,no,1,970
124,PSE-166,Test,none,Colour_Word,strawberry,New,no,1,1844
130,PSE-166,Test,none,Colour_Word,tree,New,no,1,1467
133,PSE-166,Test,none,Colour_Word,shirt,New,no,1,1400
137,PSE-166,Test,none,Colour_Word,horse,New,no,1,1970
147,PSE-166,Test,none,Colour_Word,television,New,no,1,1299
159,PSE-166,Test,none,Colour_Word,hand,New,no,1,2338
162,PSE-166,Test,none,Colour_Word,house,New,no,1,1560
166,PSE-166,Test,none,Colour_Word,motorcycle,New,no,1,2143
170,PSE-166,Test,none,Colour_Word,heart,New,no,1,1282
172,PSE-166,Test,none,Colour_Word,grasshopper,New,no,1,1428
207,PSE-166,Test,none,Colour_Word,book,New,no,1,984
208,PSE-166,Test,none,Colour_Word,bat,New,yes,0,2520
217,PSE-166,Test,none,Colour_Word,button,New,no,1,1194
236,PSE-166,Test,none,Colour_Word,chair,New,no,1,1622
240,PSE-166,Test,none,Colour_Word,drum,New,no,1,1478
97,PSE-166,Test,none,Colour_Word,onion,Old,yes,1,1630
120,PSE-166,Test,none,Colour_Word,screwdriver,Old,no,0,964
129,PSE-166,Test,none,Colour_Word,giraffe,Old,no,0,1587
135,PSE-166,Test,none,Colour_Word,cap,Old,yes,1,1468
145,PSE-166,Test,none,Colour_Word,carrot,Old,yes,1,1683
150,PSE-166,Test,none,Colour_Word,pear,Old,no,0,874
156,PSE-166,Test,none,Colour_Word,box,Old,yes,1,1189
160,PSE-166,Test,none,Colour_Word,alligator,Old,no,0,898
163,PSE-166,Test,none,Colour_Word,fox,Old,yes,1,1050
164,PSE-166,Test,none,Colour_Word,cake,Old,yes,1,966
165,PSE-166,Test,none,Colour_Word,shoe,Old,no,0,1090
177,PSE-166,Test,none,Colour_Word,peanut,Old,yes,1,2086
178,PSE-166,Test,none,Colour_Word,sandwich,Old,no,0,1009
184,PSE-166,Test,none,Colour_Word,violin,Old,yes,1,898
187,PSE-166,Test,none,Colour_Word,barn,Old,yes,1,1087
195,PSE-166,Test,none,Colour_Word,tomato,Old,yes,1,1156
199,PSE-166,Test,none,Colour_Word,trumpet,Old,no,0,881
216,PSE-166,Test,none,Colour_Word,apple,Old,yes,1,1260
225,PSE-166,Test,none,Colour_Word,bread,Old,yes,1,1050
228,PSE-166,Test,none,Colour_Word,corn,Old,no,0,966
4,PSE-170,Study,banana,BW_Picture,none,none,none,-1,-1
12,PSE-170,Study,lamp,BW_Picture,none,none,none,-1,-1
13,PSE-170,Study,candle,BW_Picture,none,none,none,-1,-1
17,PSE-170,Study,fox,BW_Picture,none,none,none,-1,-1
20,PSE-170,Study,button,BW_Picture,none,none,none,-1,-1
23,PSE-170,Study,flower,BW_Picture,none,none,none,-1,-1
27,PSE-170,Study,sun,BW_Picture,none,none,none,-1,-1
28,PSE-170,Study,grasshopper,BW_Picture,none,none,none,-1,-1
36,PSE-170,Study,pepper,BW_Picture,none,none,none,-1,-1
37,PSE-170,Study,kite,BW_Picture,none,none,none,-1,-1
38,PSE-170,Study,sandwich,BW_Picture,none,none,none,-1,-1
39,PSE-170,Study,clown,BW_Picture,none,none,none,-1,-1
44,PSE-170,Study,clock,BW_Picture,none,none,none,-1,-1
46,PSE-170,Study,pumpkin,BW_Picture,none,none,none,-1,-1
48,PSE-170,Study,pear,BW_Picture,none,none,none,-1,-1
51,PSE-170,Study,paintbrush,BW_Picture,none,none,none,-1,-1
54,PSE-170,Study,apple,BW_Picture,none,none,none,-1,-1
63,PSE-170,Study,stool,BW_Picture,none,none,none,-1,-1
67,PSE-170,Study,motorcycle,BW_Picture,none,none,none,-1,-1
75,PSE-170,Study,basket,BW_Picture,none,none,none,-1,-1
3,PSE-170,Study,camel,BW_Word,none,none,none,-1,-1
14,PSE-170,Study,bear,BW_Word,none,none,none,-1,-1
21,PSE-170,Study,bed,BW_Word,none,none,none,-1,-1
26,PSE-170,Study,trumpet,BW_Word,none,none,none,-1,-1
29,PSE-170,Study,saw,BW_Word,none,none,none,-1,-1
34,PSE-170,Study,belt,BW_Word,none,none,none,-1,-1
35,PSE-170,Study,salt,BW_Word,none,none,none,-1,-1
40,PSE-170,Study,star,BW_Word,none,none,none,-1,-1
41,PSE-170,Study,lightbulb,BW_Word,none,none,none,-1,-1
42,PSE-170,Study,ruler,BW_Word,none,none,none,-1,-1
45,PSE-170,Study,carrot,BW_Word,none,none,none,-1,-1
55,PSE-170,Study,giraffe,BW_Word,none,none,none,-1,-1
61,PSE-170,Study,eagle,BW_Word,none,none,none,-1,-1
66,PSE-170,Study,racoon,BW_Word,none,none,none,-1,-1
68,PSE-170,Study,strawberry,BW_Word,none,none,none,-1,-1
69,PSE-170,Study,bread,BW_Word,none,none,none,-1,-1
73,PSE-170,Study,leopard,BW_Word,none,none,none,-1,-1
76,PSE-170,Study,horse,BW_Word,none,none,none,-1,-1
77,PSE-170,Study,barn,BW_Word,none,none,none,-1,-1
79,PSE-170,Study,car,BW_Word,none,none,none,-1,-1
2,PSE-170,Study,mitten,Colour_Picture,none,none,none,-1,-1
5,PSE-170,Study,knife,Colour_Picture,none,none,none,-1,-1
8,PSE-170,Study,truck,Colour_Picture,none,none,none,-1,-1
9,PSE-170,Study,dresser,Colour_Picture,none,none,none,-1,-1
10,PSE-170,Study,bow,Colour_Picture,none,none,none,-1,-1
11,PSE-170,Study,flag,Colour_Picture,none,none,none,-1,-1
16,PSE-170,Study,bus,Colour_Picture,none,none,none,-1,-1
22,PSE-170,Study,well,Colour_Picture,none,none,none,-1,-1
24,PSE-170,Study,arrow,Colour_Picture,none,none,none,-1,-1
25,PSE-170,Study,table,Colour_Picture,none,none,none,-1,-1
31,PSE-170,Study,axe,Colour_Picture,none,none,none,-1,-1
33,PSE-170,Study,chisel,Colour_Picture,none,none,none,-1,-1
47,PSE-170,Study,cap,Colour_Picture,none,none,none,-1,-1
52,PSE-170,Study,pen,Colour_Picture,none,none,none,-1,-1
53,PSE-170,Study,television,Colour_Picture,none,none,none,-1,-1
56,PSE-170,Study,bottle,Colour_Picture,none,none,none,-1,-1
58,PSE-170,Study,helicopter,Colour_Picture,none,none,none,-1,-1
60,PSE-170,Study,nose,Colour_Picture,none,none,none,-1,-1
72,PSE-170,Study,toothbrush,Colour_Picture,none,none,none,-1,-1
80,PSE-170,Study,frog,Colour_Picture,none,none,none,-1,-1
1,PSE-170,Study,ear,Colour_Word,none,none,none,-1,-1
6,PSE-170,Study,cow,Colour_Word,none,none,none,-1,-1
7,PSE-170,Study,potato,Colour_Word,none,none,none,-1,-1
15,PSE-170,Study,chair,Colour_Word,none,none,none,-1,-1
18,PSE-170,Study,book,Colour_Word,none,none,none,-1,-1
19,PSE-170,Study,drum,Colour_Word,none,none,none,-1,-1
30,PSE-170,Study,spool,Colour_Word,none,none,none,-1,-1
32,PSE-170,Study,squirrel,Colour_Word,none,none,none,-1,-1
43,PSE-170,Study,thimble,Colour_Word,none,none,none,-1,-1
49,PSE-170,Study,doll,Colour_Word,none,none,none,-1,-1
50,PSE-170,Study,iron,Colour_Word,none,none,none,-1,-1
57,PSE-170,Study,heart,Colour_Word,none,none,none,-1,-1
59,PSE-170,Study,train,Colour_Word,none,none,none,-1,-1
62,PSE-170,Study,sailboat,Colour_Word,none,none,none,-1,-1
64,PSE-170,Study,bicycle,Colour_Word,none,none,none,-1,-1
65,PSE-170,Study,corn,Colour_Word,none,none,none,-1,-1
70,PSE-170,Study,pig,Colour_Word,none,none,none,-1,-1
71,PSE-170,Study,caterpillar,Colour_Word,none,none,none,-1,-1
74,PSE-170,Study,boot,Colour_Word,none,none,none,-1,-1
78,PSE-170,Study,penguin,Colour_Word,none,none,none,-1,-1
103,PSE-170,Test,none,BW_Picture,mountain,New,no,1,1840
108,PSE-170,Test,none,BW_Picture,monkey,New,no,1,1118
116,PSE-170,Test,none,BW_Picture,shoe,New,no,1,1378
124,PSE-170,Test,none,BW_Picture,envelope,New,no,1,1121
126,PSE-170,Test,none,BW_Picture,lettuce,New,no,1,2543
133,PSE-170,Test,none,BW_Picture,tree,New,no,1,1185
151,PSE-170,Test,none,BW_Picture,screwdriver,New,no,1,2288
157,PSE-170,Test,none,BW_Picture,rooster,New,no,1,1089
164,PSE-170,Test,none,BW_Picture,hand,New,no,1,1360
171,PSE-170,Test,none,BW_Picture,dog,New,no,1,1720
172,PSE-170,Test,none,BW_Picture,house,New,no,1,1656
180,PSE-170,Test,none,BW_Picture,cannon,New,no,1,1767
182,PSE-170,Test,none,BW_Picture,pencil,New,no,1,2344
201,PSE-170,Test,none,BW_Picture,barrel,New,no,1,1378
207,PSE-170,Test,none,BW_Picture,leaf,New,no,1,1180
223,PSE-170,Test,none,BW_Picture,bell,New,no,1,1454
231,PSE-170,Test,none,BW_Picture,alligator,New,no,1,2073
233,PSE-170,Test,none,BW_Picture,vase,New,no,1,2160
237,PSE-170,Test,none,BW_Picture,foot,New,no,1,1566
238,PSE-170,Test,none,BW_Picture,lion,New,no,1,1508
81,PSE-170,Test,none,BW_Picture,grasshopper,Old,yes,1,1007
85,PSE-170,Test,none,BW_Picture,apple,Old,no,0,2424
91,PSE-170,Test,none,BW_Picture,sandwich,Old,yes,1,921
107,PSE-170,Test,none,BW_Picture,pear,Old,yes,1,791
112,PSE-170,Test,none,BW_Picture,fox,Old,yes,1,800
119,PSE-170,Test,none,BW_Picture,candle,Old,yes,1,794
129,PSE-170,Test,none,BW_Picture,kite,Old,yes,1,976
130,PSE-170,Test,none,BW_Picture,clock,Old,yes,1,871
139,PSE-170,Test,none,BW_Picture,pepper,Old,no,0,1649
141,PSE-170,Test,none,BW_Picture,clown,Old,no,0,2615
145,PSE-170,Test,none,BW_Picture,basket,Old,yes,1,921
160,PSE-170,Test,none,BW_Picture,pumpkin,Old,yes,1,1079
169,PSE-170,Test,none,BW_Picture,lamp,Old,yes,1,897
178,PSE-170,Test,none,BW_Picture,sun,Old,no,0,1263
187,PSE-170,Test,none,BW_Picture,flower,Old,no,0,920
204,PSE-170,Test,none,BW_Picture,paintbrush,Old,yes,1,1934
215,PSE-170,Test,none,BW_Picture,banana,Old,yes,1,1110
220,PSE-170,Test,none,BW_Picture,button,Old,yes,1,1251
230,PSE-170,Test,none,BW_Picture,stool,Old,no,0,1429
239,PSE-170,Test,none,BW_Picture,motorcycle,Old,no,0,2229
94,PSE-170,Test,none,BW_Word,goat,New,no,1,1391
105,PSE-170,Test,none,BW_Word,snake,New,no,1,1352
110,PSE-170,Test,none,BW_Word,rabbit,New,no,1,1152
114,PSE-170,Test,none,BW_Word,tomato,New,no,1,1607
120,PSE-170,Test,none,BW_Word,window,New,no,1,1672
136,PSE-170,Test,none,BW_Word,peacock,New,no,1,1249
138,PSE-170,Test,none,BW_Word,chicken,New,no,1,1559
146,PSE-170,Test,none,BW_Word,watermelon,New,no,1,1143
148,PSE-170,Test,none,BW_Word,butterfly,New,no,1,1250
163,PSE-170,Test,none,BW_Word,box,New,no,1,1743
165,PSE-170,Test,none,BW_Word,sweater,New,no,1,2976
176,PSE-170,Test,none,BW_Word,owl,New,no,1,1001
181,PSE-170,Test,none,BW_Word,church,New,no,1,976
186,PSE-170,Test,none,BW_Word,duck,New,no,1,1081
189,PSE-170,Test,none,BW_Word,celery,New,no,1,2605
199,PSE-170,Test,none,BW_Word,onion,New,no,1,1547
208,PSE-170,Test,none,BW_Word,deer,New,no,1,1394
214,PSE-170,Test,none,BW_Word,violin,New,no,1,2552
217,PSE-170,Test,none,BW_Word,purse,New,no,1,1861
235,PSE-170,Test,none,BW_Word,refrigerator,New,no,1,1720
87,PSE-170,Test,none,BW_Word,trumpet,Old,no,0,1550
92,PSE-170,Test,none,BW_Word,strawberry,Old,no,0,1040
106,PSE-170,Test,none,BW_Word,barn,Old,yes,1,976
115,PSE-170,Test,none,BW_Word,car,Old,no,0,1360
118,PSE-170,Test,none,BW_Word,bed,Old,yes,1,3327
122,PSE-170,Test,none,BW_Word,saw,Old,yes,1,1088
127,PSE-170,Test,none,BW_Word,star,Old,no,0,1240
142,PSE-170,Test,none,BW_Word,eagle,Old,yes,1,856
158,PSE-170,Test,none,BW_Word,lightbulb,Old,no,0,2064
166,PSE-170,Test,none,BW_Word,bear,Old,yes,1,920
175,PSE-170,Test,none,BW_Word,giraffe,Old,yes,1,1023
184,PSE-170,Test,none,BW_Word,camel,Old,yes,1,984
193,PSE-170,Test,none,BW_Word,racoon,Old,yes,1,1088
198,PSE-170,Test,none,BW_Word,leopard,Old,yes,1,1469
200,PSE-170,Test,none,BW_Word,ruler,Old,no,0,1100
216,PSE-170,Test,none,BW_Word,bread,Old,no,0,2069
221,PSE-170,Test,none,BW_Word,belt,Old,no,0,1396
225,PSE-170,Test,none,BW_Word,carrot,Old,yes,1,1201
226,PSE-170,Test,none,BW_Word,salt,Old,yes,1,1383
234,PSE-170,Test,none,BW_Word,horse,Old,yes,1,1424
82,PSE-170,Test,none,Colour_Picture,bird,New,no,1,2478
93,PSE-170,Test,none,Colour_Picture,shirt,New,no,1,1221
95,PSE-170,Test,none,Colour_Picture,sled,New,no,1,1633
123,PSE-170,Test,none,Colour_Picture,hammer,New,no,1,2059
125,PSE-170,Test,none,Colour_Picture,stove,New,no,1,1175
128,PSE-170,Test,none,Colour_Picture,lips,New,no,1,1152
132,PSE-170,Test,none,Colour_Picture,ball,New,no,1,1688
135,PSE-170,Test,none,Colour_Picture,door,New,no,1,1200
137,PSE-170,Test,none,Colour_Picture,orange,New,no,1,1265
140,PSE-170,Test,none,Colour_Picture,crown,New,no,1,1024
144,PSE-170,Test,none,Colour_Picture,tortoise,New,no,1,1913
150,PSE-170,Test,none,Colour_Picture,cherry,New,no,1,1215
152,PSE-170,Test,none,Colour_Picture,couch,New,no,1,1056
154,PSE-170,Test,none,Colour_Picture,glove,New,no,1,2257
174,PSE-170,Test,none,Colour_Picture,suitcase,New,no,1,1056
205,PSE-170,Test,none,Colour_Picture,cake,New,no,1,1985
209,PSE-170,Test,none,Colour_Picture,fish,New,no,1,1478
211,PSE-170,Test,none,Colour_Picture,grapes,New,no,1,1779
222,PSE-170,Test,none,Colour_Picture,peanut,New,no,1,2199
240,PSE-170,Test,none,Colour_Picture,artichoke,New,no,1,2275
88,PSE-170,Test,none,Colour_Picture,mitten,Old,yes,1,896
100,PSE-170,Test,none,Colour_Picture,nose,Old,yes,1,816
101,PSE-170,Test,none,Colour_Picture,helicopter,Old,yes,1,1232
113,PSE-170,Test,none,Colour_Picture,flag,Old,yes,1,872
131,PSE-170,Test,none,Colour_Picture,bus,Old,no,0,1400
149,PSE-170,Test,none,Colour_Picture,chisel,Old,yes,1,943
161,PSE-170,Test,none,Colour_Picture,truck,Old,yes,1,1232
167,PSE-170,Test,none,Colour_Picture,frog,Old,yes,1,961
168,PSE-170,Test,none,Colour_Picture,toothbrush,Old,yes,1,1168
177,PSE-170,Test,none,Colour_Picture,knife,Old,yes,1,879
179,PSE-170,Test,none,Colour_Picture,television,Old,no,0,976
191,PSE-170,Test,none,Colour_Picture,dresser,Old,yes,1,1243
195,PSE-170,Test,none,Colour_Picture,bottle,Old,no,0,1110
196,PSE-170,Test,none,Colour_Picture,axe,Old,yes,1,1282
206,PSE-170,Test,none,Colour_Picture,bow,Old,yes,1,1162
213,PSE-170,Test,none,Colour_Picture,pen,Old,yes,1,1247
218,PSE-170,Test,none,Colour_Picture,cap,Old,yes,1,1239
227,PSE-170,Test,none,Colour_Picture,well,Old,no,0,1224
229,PSE-170,Test,none,Colour_Picture,table,Old,no,0,1556
236,PSE-170,Test,none,Colour_Picture,arrow,Old,no,0,1099
84,PSE-170,Test,none,Colour_Word,balloon,New,yes,0,3561
86,PSE-170,Test,none,Colour_Word,pitcher,New,no,1,2104
89,PSE-170,Test,none,Colour_Word,dress,New,no,1,2329
90,PSE-170,Test,none,Colour_Word,harp,New,no,1,1319
98,PSE-170,Test,none,Colour_Word,umbrella,New,no,1,1080
117,PSE-170,Test,none,Colour_Word,glass,New,no,1,1336
134,PSE-170,Test,none,Colour_Word,lemon,New,no,1,1248
143,PSE-170,Test,none,Colour_Word,tie,New,no,1,1792
153,PSE-170,Test,none,Colour_Word,coat,New,no,1,1560
155,PSE-170,Test,none,Colour_Word,desk,New,no,1,2440
156,PSE-170,Test,none,Colour_Word,asparagus,New,no,1,1551
159,PSE-170,Test,none,Colour_Word,lock,New,no,1,2352
162,PSE-170,Test,none,Colour_Word,lobster,New,no,1,2303
185,PSE-170,Test,none,Colour_Word,tiger,New,no,1,1680
188,PSE-170,Test,none,Colour_Word,watch,New,no,1,1088
190,PSE-170,Test,none,Colour_Word,ring,New,no,1,2037
210,PSE-170,Test,none,Colour_Word,bowl,New,yes,0,1884
212,PSE-170,Test,none,Colour_Word,bat,New,yes,0,1638
228,PSE-170,Test,none,Colour_Word,kettle,New,no,1,1865
232,PSE-170,Test,none,Colour_Word,kangaroo,New,no,1,1589
83,PSE-170,Test,none,Colour_Word,cow,Old,yes,1,1110
96,PSE-170,Test,none,Colour_Word,chair,Old,yes,1,1048
97,PSE-170,Test,none,Colour_Word,penguin,Old,yes,1,929
99,PSE-170,Test,none,Colour_Word,squirrel,Old,yes,1,945
102,PSE-170,Test,none,Colour_Word,doll,Old,yes,1,911
104,PSE-170,Test,none,Colour_Word,thimble,Old,yes,1,2073
109,PSE-170,Test,none,Colour_Word,ear,Old,yes,1,744
111,PSE-170,Test,none,Colour_Word,caterpillar,Old,yes,1,792
121,PSE-170,Test,none,Colour_Word,sailboat,Old,yes,1,927
147,PSE-170,Test,none,Colour_Word,boot,Old,yes,1,1024
170,PSE-170,Test,none,Colour_Word,corn,Old,yes,1,1008
173,PSE-170,Test,none,Colour_Word,bicycle,Old,no,0,1392
183,PSE-170,Test,none,Colour_Word,iron,Old,yes,1,2608
192,PSE-170,Test,none,Colour_Word,drum,Old,no,0,1285
194,PSE-170,Test,none,Colour_Word,potato,Old,yes,1,1173
197,PSE-170,Test,none,Colour_Word,heart,Old,no,0,1089
202,PSE-170,Test,none,Colour_Word,pig,Old,no,0,1193
203,PSE-170,Test,none,Colour_Word,train,Old,no,0,1070
219,PSE-170,Test,none,Colour_Word,book,Old,yes,1,1179
224,PSE-170,Test,none,Colour_Word,spool,Old,yes,1,1578
20,PSE-171,Study,flower,BW_Picture,none,none,none,-1,-1
24,PSE-171,Study,dresser,BW_Picture,none,none,none,-1,-1
27,PSE-171,Study,pumpkin,BW_Picture,none,none,none,-1,-1
32,PSE-171,Study,screwdriver,BW_Picture,none,none,none,-1,-1
33,PSE-171,Study,ball,BW_Picture,none,none,none,-1,-1
34,PSE-171,Study,snake,BW_Picture,none,none,none,-1,-1
36,PSE-171,Study,cherry,BW_Picture,none,none,none,-1,-1
49,PSE-171,Study,horse,BW_Picture,none,none,none,-1,-1
50,PSE-171,Study,bell,BW_Picture,none,none,none,-1,-1
51,PSE-171,Study,knife,BW_Picture,none,none,none,-1,-1
59,PSE-171,Study,deer,BW_Picture,none,none,none,-1,-1
61,PSE-171,Study,umbrella,BW_Picture,none,none,none,-1,-1
62,PSE-171,Study,motorcycle,BW_Picture,none,none,none,-1,-1
63,PSE-171,Study,owl,BW_Picture,none,none,none,-1,-1
66,PSE-171,Study,snail,BW_Picture,none,none,none,-1,-1
68,PSE-171,Study,bear,BW_Picture,none,none,none,-1,-1
69,PSE-171,Study,couch,BW_Picture,none,none,none,-1,-1
73,PSE-171,Study,pepper,BW_Picture,none,none,none,-1,-1
78,PSE-171,Study,kettle,BW_Picture,none,none,none,-1,-1
79,PSE-171,Study,belt,BW_Picture,none,none,none,-1,-1
1,PSE-171,Study,tie,BW_Word,none,none,none,-1,-1
2,PSE-171,Study,sun,BW_Word,none,none,none,-1,-1
3,PSE-171,Study,thimble,BW_Word,none,none,none,-1,-1
8,PSE-171,Study,lamp,BW_Word,none,none,none,-1,-1
11,PSE-171,Study,iron,BW_Word,none,none,none,-1,-1
12,PSE-171,Study,bat,BW_Word,none,none,none,-1,-1
13,PSE-171,Study,peanut,BW_Word,none,none,none,-1,-1
16,PSE-171,Study,tomato,BW_Word,none,none,none,-1,-1
17,PSE-171,Study,cap,BW_Word,none,none,none,-1,-1
22,PSE-171,Study,lightbulb,BW_Word,none,none,none,-1,-1
30,PSE-171,Study,crown,BW_Word,none,none,none,-1,-1
31,PSE-171,Study,celery,BW_Word,none,none,none,-1,-1
35,PSE-171,Study,artichoke,BW_Word,none,none,none,-1,-1
43,PSE-171,Study,bicycle,BW_Word,none,none,none,-1,-1
45,PSE-171,Study,apple,BW_Word,none,none,none,-1,-1
47,PSE-171,Study,saw,BW_Word,none,none,none,-1,-1
54,PSE-171,Study,boot,BW_Word,none,none,none,-1,-1
56,PSE-171,Study,ruler,BW_Word,none,none,none,-1,-1
57,PSE-171,Study,leaf,BW_Word,none,none,none,-1,-1
80,PSE-171,Study,coat,BW_Word,none,none,none,-1,-1
6,PSE-171,Study,rabbit,Colour_Picture,none,none,none,-1,-1
7,PSE-171,Study,peacock,Colour_Picture,none,none,none,-1,-1
9,PSE-171,Study,orange,Colour_Picture,none,none,none,-1,-1
10,PSE-171,Study,basket,Colour_Picture,none,none,none,-1,-1
14,PSE-171,Study,caterpillar,Colour_Picture,none,none,none,-1,-1
15,PSE-171,Study,truck,Colour_Picture,none,none,none,-1,-1
23,PSE-171,Study,wagon,Colour_Picture,none,none,none,-1,-1
25,PSE-171,Study,chisel,Colour_Picture,none,none,none,-1,-1
26,PSE-171,Study,sock,Colour_Picture,none,none,none,-1,-1
37,PSE-171,Study,goat,Colour_Picture,none,none,none,-1,-1
40,PSE-171,Study,drum,Colour_Picture,none,none,none,-1,-1
42,PSE-171,Study,foot,Colour_Picture,none,none,none,-1,-1
46,PSE-171,Study,chicken,Colour_Picture,none,none,none,-1,-1
55,PSE-171,Study,tortoise,Colour_Picture,none,none,none,-1,-1
65,PSE-171,Study,cake,Colour_Picture,none,none,none,-1,-1
70,PSE-171,Study,corn,Colour_Picture,none,none,none,-1,-1
71,PSE-171,Study,camel,Colour_Picture,none,none,none,-1,-1
74,PSE-171,Study,bed,Colour_Picture,none,none,none,-1,-1
75,PSE-171,Study,book,Colour_Picture,none,none,none,-1,-1
77,PSE-171,Study,stove,Colour_Picture,none,none,none,-1,-1
4,PSE-171,Study,barn,Colour_Word,none,none,none,-1,-1
5,PSE-171,Study,suitcase,Colour_Word,none,none,none,-1,-1
18,PSE-171,Study,kangaroo,Colour_Word,none,none,none,-1,-1
19,PSE-171,Study,hand,Colour_Word,none,none,none,-1,-1
21,PSE-171,Study,lemon,Colour_Word,none,none,none,-1,-1
28,PSE-171,Study,lips,Colour_Word,none,none,none,-1,-1
29,PSE-171,Study,door,Colour_Word,none,none,none,-1,-1
38,PSE-171,Study,spool,Colour_Word,none,none,none,-1,-1
39,PSE-171,Study,vase,Colour_Word,none,none,none,-1,-1
41,PSE-171,Study,bread,Colour_Word,none,none,none,-1,-1
44,PSE-171,Study,flag,Colour_Word,none,none,none,-1,-1
48,PSE-171,Study,glove,Colour_Word,none,none,none,-1,-1
52,PSE-171,Study,eagle,Colour_Word,none,none,none,-1,-1
53,PSE-171,Study,sailboat,Colour_Word,none,none,none,-1,-1
58,PSE-171,Study,fox,Colour_Word,none,none,none,-1,-1
60,PSE-171,Study,watch,Colour_Word,none,none,none,-1,-1
64,PSE-171,Study,pitcher,Colour_Word,none,none,none,-1,-1
67,PSE-171,Study,purse,Colour_Word,none,none,none,-1,-1
72,PSE-171,Study,television,Colour_Word,none,none,none,-1,-1
76,PSE-171,Study,bird,Colour_Word,none,none,none,-1,-1
82,PSE-171,Test,none,BW_Picture,candle,New,no,1,1929
84,PSE-171,Test,none,BW_Picture,leopard,New,yes,0,1934
90,PSE-171,Test,none,BW_Picture,helicopter,New,no,1,1605
93,PSE-171,Test,none,BW_Picture,envelope,New,no,1,1844
111,PSE-171,Test,none,BW_Picture,button,New,no,1,5183
131,PSE-171,Test,none,BW_Picture,heart,New,no,1,1545
135,PSE-171,Test,none,BW_Picture,bottle,New,yes,0,1227
145,PSE-171,Test,none,BW_Picture,onion,New,no,1,2358
147,PSE-171,Test,none,BW_Picture,shoe,New,yes,0,1131
152,PSE-171,Test,none,BW_Picture,mountain,New,no,1,1493
162,PSE-171,Test,none,BW_Picture,barrel,New,yes,0,1936
164,PSE-171,Test,none,BW_Picture,guitar,New,yes,0,1222
168,PSE-171,Test,none,BW_Picture,lettuce,New,no,1,1703
181,PSE-171,Test,none,BW_Picture,tiger,New,yes,0,1690
184,PSE-171,Test,none,BW_Picture,dress,New,yes,0,2182
185,PSE-171,Test,none,BW_Picture,sweater,New,no,1,2014
215,PSE-171,Test,none,BW_Picture,stool,New,yes,0,1448
218,PSE-171,Test,none,BW_Picture,pen,New,yes,0,1748
231,PSE-171,Test,none,BW_Picture,well,New,no,1,2559
235,PSE-171,Test,none,BW_Picture,star,New,no,1,2689
81,PSE-171,Test,none,BW_Picture,dresser,Old,yes,1,1296
89,PSE-171,Test,none,BW_Picture,motorcycle,Old,yes,1,913
91,PSE-171,Test,none,BW_Picture,bear,Old,yes,1,978
98,PSE-171,Test,none,BW_Picture,bell,Old,yes,1,847
112,PSE-171,Test,none,BW_Picture,kettle,Old,yes,1,1471
115,PSE-171,Test,none,BW_Picture,horse,Old,yes,1,1153
116,PSE-171,Test,none,BW_Picture,screwdriver,Old,yes,1,1386
128,PSE-171,Test,none,BW_Picture,couch,Old,yes,1,943
138,PSE-171,Test,none,BW_Picture,knife,Old,yes,1,940
156,PSE-171,Test,none,BW_Picture,cherry,Old,yes,1,1208
165,PSE-171,Test,none,BW_Picture,umbrella,Old,yes,1,3410
175,PSE-171,Test,none,BW_Picture,deer,Old,yes,1,791
201,PSE-171,Test,none,BW_Picture,belt,Old,yes,1,1203
204,PSE-171,Test,none,BW_Picture,owl,Old,yes,1,836
213,PSE-171,Test,none,BW_Picture,snake,Old,yes,1,830
214,PSE-171,Test,none,BW_Picture,snail,Old,yes,1,821
222,PSE-171,Test,none,BW_Picture,ball,Old,no,0,1367
224,PSE-171,Test,none,BW_Picture,pepper,Old,yes,1,1193
228,PSE-171,Test,none,BW_Picture,pumpkin,Old,no,0,1306
234,PSE-171,Test,none,BW_Picture,flower,Old,yes,1,1076
86,PSE-171,Test,none,BW_Word,desk,New,no,1,1445
96,PSE-171,Test,none,BW_Word,paintbrush,New,no,1,1174
99,PSE-171,Test,none,BW_Word,butterfly,New,no,1,2388
108,PSE-171,Test,none,BW_Word,pig,New,no,1,1876
122,PSE-171,Test,none,BW_Word,balloon,New,no,1,1682
125,PSE-171,Test,none,BW_Word,racoon,New,no,1,1150
133,PSE-171,Test,none,BW_Word,clown,New,no,1,1365
139,PSE-171,Test,none,BW_Word,giraffe,New,no,1,1709
141,PSE-171,Test,none,BW_Word,axe,New,yes,0,1256
143,PSE-171,Test,none,BW_Word,alligator,New,no,1,1369
144,PSE-171,Test,none,BW_Word,ring,New,no,1,1295
148,PSE-171,Test,none,BW_Word,harp,New,no,1,1221
153,PSE-171,Test,none,BW_Word,duck,New,no,1,1255
155,PSE-171,Test,none,BW_Word,church,New,no,1,1148
166,PSE-171,Test,none,BW_Word,cannon,New,yes,0,3558
199,PSE-171,Test,none,BW_Word,lock,New,no,1,1399
202,PSE-171,Test,none,BW_Word,sandwich,New,no,1,1341
203,PSE-171,Test,none,BW_Word,dog,New,yes,0,2567
205,PSE-171,Test,none,BW_Word,hammer,New,yes,0,1299
239,PSE-171,Test,none,BW_Word,trumpet,New,no,1,13079
83,PSE-171,Test,none,BW_Word,saw,Old,yes,1,1891
88,PSE-171,Test,none,BW_Word,ruler,Old,no,0,1178
95,PSE-171,Test,none,BW_Word,iron,Old,yes,1,1432
97,PSE-171,Test,none,BW_Word,boot,Old,yes,1,1056
106,PSE-171,Test,none,BW_Word,celery,Old,yes,1,16046
120,PSE-171,Test,none,BW_Word,apple,Old,yes,1,1180
129,PSE-171,Test,none,BW_Word,thimble,Old,yes,1,1186
132,PSE-171,Test,none,BW_Word,sun,Old,yes,1,825
136,PSE-171,Test,none,BW_Word,bicycle,Old,no,0,1162
137,PSE-171,Test,none,BW_Word,artichoke,Old,yes,1,848
182,PSE-171,Test,none,BW_Word,coat,Old,yes,1,2247
186,PSE-171,Test,none,BW_Word,crown,Old,no,0,1411
188,PSE-171,Test,none,BW_Word,lightbulb,Old,yes,1,1037
191,PSE-171,Test,none,BW_Word,bat,Old,yes,1,835
194,PSE-171,Test,none,BW_Word,tomato,Old,yes,1,765
196,PSE-171,Test,none,BW_Word,lamp,Old,yes,1,935
219,PSE-171,Test,none,BW_Word,cap,Old,yes,1,1328
220,PSE-171,Test,none,BW_Word,tie,Old,yes,1,870
233,PSE-171,Test,none,BW_Word,peanut,Old,yes,1,2630
236,PSE-171,Test,none,BW_Word,leaf,Old,no,0,48997
94,PSE-171,Test,none,Colour_Picture,finger,New,yes,0,1354
102,PSE-171,Test,none,Colour_Picture,monkey,New,no,1,1907
103,PSE-171,Test,none,Colour_Picture,shirt,New,no,1,1681
105,PSE-171,Test,none,Colour_Picture,banana,New,no,1,1389
114,PSE-171,Test,none,Colour_Picture,box,New,no,1,2144
118,PSE-171,Test,none,Colour_Picture,tree,New,no,1,3983
124,PSE-171,Test,none,Colour_Picture,watermelon,New,no,1,1477
140,PSE-171,Test,none,Colour_Picture,lion,New,no,1,2151
149,PSE-171,Test,none,Colour_Picture,table,New,yes,0,2264
159,PSE-171,Test,none,Colour_Picture,arrow,New,no,1,1380
160,PSE-171,Test,none,Colour_Picture,bus,New,yes,0,1243
174,PSE-171,Test,none,Colour_Picture,window,New,no,1,3812
177,PSE-171,Test,none,Colour_Picture,car,New,no,1,1978
190,PSE-171,Test,none,Colour_Picture,train,New,no,1,2294
193,PSE-171,Test,none,Colour_Picture,house,New,no,1,1848
198,PSE-171,Test,none,Colour_Picture,cow,New,no,1,3013
208,PSE-171,Test,none,Colour_Picture,violin,New,yes,0,1810
225,PSE-171,Test,none,Colour_Picture,ear,New,no,1,1452
232,PSE-171,Test,none,Colour_Picture,brush,New,no,1,2153
240,PSE-171,Test,none,Colour_Picture,frog,New,yes,0,17658
85,PSE-171,Test,none,Colour_Picture,camel,Old,yes,1,1141
92,PSE-171,Test,none,Colour_Picture,basket,Old,yes,1,917
100,PSE-171,Test,none,Colour_Picture,bed,Old,yes,1,980
101,PSE-171,Test,none,Colour_Picture,drum,Old,yes,1,944
107,PSE-171,Test,none,Colour_Picture,goat,Old,yes,1,943
109,PSE-171,Test,none,Colour_Picture,chisel,Old,yes,1,1402
121,PSE-171,Test,none,Colour_Picture,tortoise,Old,yes,1,804
126,PSE-171,Test,none,Colour_Picture,chicken,Old,yes,1,854
134,PSE-171,Test,none,Colour_Picture,cake,Old,yes,1,875
142,PSE-171,Test,none,Colour_Picture,wagon,Old,yes,1,774
146,PSE-171,Test,none,Colour_Picture,peacock,Old,yes,1,1183
154,PSE-171,Test,none,Colour_Picture,rabbit,Old,yes,1,878
161,PSE-171,Test,none,Colour_Picture,orange,Old,yes,1,1081
163,PSE-171,Test,none,Colour_Picture,truck,Old,yes,1,1152
169,PSE-171,Test,none,Colour_Picture,foot,Old,yes,1,916
171,PSE-171,Test,none,Colour_Picture,sock,Old,yes,1,841
176,PSE-171,Test,none,Colour_Picture,corn,Old,yes,1,725
180,PSE-171,Test,none,Colour_Picture,book,Old,yes,1,856
210,PSE-171,Test,none,Colour_Picture,caterpillar,Old,yes,1,904
211,PSE-171,Test,none,Colour_Picture,stove,Old,no,0,978
87,PSE-171,Test,none,Colour_Word,squirrel,New,yes,0,3549
110,PSE-171,Test,none,Colour_Word,sled,New,no,1,3162
119,PSE-171,Test,none,Colour_Word,grasshopper,New,no,1,5454
127,PSE-171,Test,none,Colour_Word,toothbrush,New,no,1,1275
151,PSE-171,Test,none,Colour_Word,chair,New,yes,0,1354
170,PSE-171,Test,none,Colour_Word,pineapple,New,no,1,2240
172,PSE-171,Test,none,Colour_Word,glass,New,yes,0,997
173,PSE-171,Test,none,Colour_Word,kite,New,no,1,1698
179,PSE-171,Test,none,Colour_Word,grapes,New,no,1,2751
187,PSE-171,Test,none,Colour_Word,nose,New,no,1,1625
192,PSE-171,Test,none,Colour_Word,pencil,New,yes,0,1372
195,PSE-171,Test,none,Colour_Word,doll,New,no,1,1399
197,PSE-171,Test,none,Colour_Word,asparagus,New,yes,0,3699
200,PSE-171,Test,none,Colour_Word,carrot,New,no,1,2036
206,PSE-171,Test,none,Colour_Word,penguin,New,no,1,1287
212,PSE-171,Test,none,Colour_Word,mitten,New,no,1,2400
216,PSE-171,Test,none,Colour_Word,rooster,New,yes,0,2723
223,PSE-171,Test,none,Colour_Word,salt,New,yes,0,3024
229,PSE-171,Test,none,Colour_Word,clock,New,yes,0,3618
238,PSE-171,Test,none,Colour_Word,bow,New,no,1,6613
104,PSE-171,Test,none,Colour_Word,pitcher,Old,yes,1,1232
113,PSE-171,Test,none,Colour_Word,barn,Old,yes,1,1162
117,PSE-171,Test,none,Colour_Word,fox,Old,yes,1,3314
123,PSE-171,Test,none,Colour_Word,lemon,Old,yes,1,1662
130,PSE-171,Test,none,Colour_Word,vase,Old,yes,1,1297
150,PSE-171,Test,none,Colour_Word,purse,Old,yes,1,812
157,PSE-171,Test,none,Colour_Word,door,Old,yes,1,3623
158,PSE-171,Test,none,Colour_Word,spool,Old,yes,1,1003
167,PSE-171,Test,none,Colour_Word,suitcase,Old,yes,1,1118
178,PSE-171,Test,none,Colour_Word,eagle,Old,yes,1,1557
183,PSE-171,Test,none,Colour_Word,flag,Old,yes,1,5679
189,PSE-171,Test,none,Colour_Word,sailboat,Old,yes,1,834
207,PSE-171,Test,none,Colour_Word,bread,Old,yes,1,1163
209,PSE-171,Test,none,Colour_Word,glove,Old,yes,1,770
217,PSE-171,Test,none,Colour_Word,watch,Old,yes,1,3515
221,PSE-171,Test,none,Colour_Word,lips,Old,no,0,1197
226,PSE-171,Test,none,Colour_Word,kangaroo,Old,yes,1,2886
227,PSE-171,Test,none,Colour_Word,bird,Old,yes,1,1550
230,PSE-171,Test,none,Colour_Word,television,Old,yes,1,2638
237,PSE-171,Test,none,Colour_Word,hand,Old,yes,1,1703
1,PSE-173,Study,hand,BW_Picture,none,none,none,-1,-1
2,PSE-173,Study,suitcase,BW_Picture,none,none,none,-1,-1
6,PSE-173,Study,asparagus,BW_Picture,none,none,none,-1,-1
8,PSE-173,Study,peacock,BW_Picture,none,none,none,-1,-1
12,PSE-173,Study,banana,BW_Picture,none,none,none,-1,-1
13,PSE-173,Study,thimble,BW_Picture,none,none,none,-1,-1
17,PSE-173,Study,horse,BW_Picture,none,none,none,-1,-1
18,PSE-173,Study,church,BW_Picture,none,none,none,-1,-1
25,PSE-173,Study,dresser,BW_Picture,none,none,none,-1,-1
39,PSE-173,Study,tiger,BW_Picture,none,none,none,-1,-1
44,PSE-173,Study,bus,BW_Picture,none,none,none,-1,-1
46,PSE-173,Study,vase,BW_Picture,none,none,none,-1,-1
47,PSE-173,Study,bell,BW_Picture,none,none,none,-1,-1
51,PSE-173,Study,saw,BW_Picture,none,none,none,-1,-1
52,PSE-173,Study,lips,BW_Picture,none,none,none,-1,-1
63,PSE-173,Study,rabbit,BW_Picture,none,none,none,-1,-1
67,PSE-173,Study,bird,BW_Picture,none,none,none,-1,-1
69,PSE-173,Study,squirrel,BW_Picture,none,none,none,-1,-1
77,PSE-173,Study,camel,BW_Picture,none,none,none,-1,-1
80,PSE-173,Study,cow,BW_Picture,none,none,none,-1,-1
9,PSE-173,Study,lemon,BW_Word,none,none,none,-1,-1
10,PSE-173,Study,tree,BW_Word,none,none,none,-1,-1
11,PSE-173,Study,belt,BW_Word,none,none,none,-1,-1
22,PSE-173,Study,book,BW_Word,none,none,none,-1,-1
26,PSE-173,Study,balloon,BW_Word,none,none,none,-1,-1
28,PSE-173,Study,screwdriver,BW_Word,none,none,none,-1,-1
30,PSE-173,Study,bicycle,BW_Word,none,none,none,-1,-1
33,PSE-173,Study,stove,BW_Word,none,none,none,-1,-1
34,PSE-173,Study,lettuce,BW_Word,none,none,none,-1,-1
37,PSE-173,Study,bat,BW_Word,none,none,none,-1,-1
41,PSE-173,Study,penguin,BW_Word,none,none,none,-1,-1
42,PSE-173,Study,envelope,BW_Word,none,none,none,-1,-1
43,PSE-173,Study,flag,BW_Word,none,none,none,-1,-1
49,PSE-173,Study,train,BW_Word,none,none,none,-1,-1
64,PSE-173,Study,coat,BW_Word,none,none,none,-1,-1
65,PSE-173,Study,glass,BW_Word,none,none,none,-1,-1
68,PSE-173,Study,caterpillar,BW_Word,none,none,none,-1,-1
73,PSE-173,Study,rooster,BW_Word,none,none,none,-1,-1
75,PSE-173,Study,bear,BW_Word,none,none,none,-1,-1
76,PSE-173,Study,lightbulb,BW_Word,none,none,none,-1,-1
3,PSE-173,Study,ball,Colour_Picture,none,none,none,-1,-1
4,PSE-173,Study,chicken,Colour_Picture,none,none,none,-1,-1
5,PSE-173,Study,deer,Colour_Picture,none,none,none,-1,-1
15,PSE-173,Study,duck,Colour_Picture,none,none,none,-1,-1
19,PSE-173,Study,umbrella,Colour_Picture,none,none,none,-1,-1
20,PSE-173,Study,house,Colour_Picture,none,none,none,-1,-1
24,PSE-173,Study,sailboat,Colour_Picture,none,none,none,-1,-1
31,PSE-173,Study,truck,Colour_Picture,none,none,none,-1,-1
32,PSE-173,Study,kettle,Colour_Picture,none,none,none,-1,-1
36,PSE-173,Study,snail,Colour_Picture,none,none,none,-1,-1
40,PSE-173,Study,lock,Colour_Picture,none,none,none,-1,-1
50,PSE-173,Study,basket,Colour_Picture,none,none,none,-1,-1
54,PSE-173,Study,desk,Colour_Picture,none,none,none,-1,-1
55,PSE-173,Study,frog,Colour_Picture,none,none,none,-1,-1
56,PSE-173,Study,fish,Colour_Picture,none,none,none,-1,-1
60,PSE-173,Study,sun,Colour_Picture,none,none,none,-1,-1
61,PSE-173,Study,spool,Colour_Picture,none,none,none,-1,-1
70,PSE-173,Study,window,Colour_Picture,none,none,none,-1,-1
78,PSE-173,Study,pear,Colour_Picture,none,none,none,-1,-1
79,PSE-173,Study,bread,Colour_Picture,none,none,none,-1,-1
7,PSE-173,Study,axe,Colour_Word,none,none,none,-1,-1
14,PSE-173,Study,button,Colour_Word,none,none,none,-1,-1
16,PSE-173,Study,artichoke,Colour_Word,none,none,none,-1,-1
21,PSE-173,Study,sled,Colour_Word,none,none,none,-1,-1
23,PSE-173,Study,owl,Colour_Word,none,none,none,-1,-1
27,PSE-173,Study,wagon,Colour_Word,none,none,none,-1,-1
29,PSE-173,Study,strawberry,Colour_Word,none,none,none,-1,-1
35,PSE-173,Study,grasshopper,Colour_Word,none,none,none,-1,-1
38,PSE-173,Study,flower,Colour_Word,none,none,none,-1,-1
45,PSE-173,Study,orange,Colour_Word,none,none,none,-1,-1
48,PSE-173,Study,stool,Colour_Word,none,none,none,-1,-1
53,PSE-173,Study,eagle,Colour_Word,none,none,none,-1,-1
57,PSE-173,Study,trumpet,Colour_Word,none,none,none,-1,-1
58,PSE-173,Study,knife,Colour_Word,none,none,none,-1,-1
59,PSE-173,Study,cake,Colour_Word,none,none,none,-1,-1
62,PSE-173,Study,violin,Colour_Word,none,none,none,-1,-1
66,PSE-173,Study,corn,Colour_Word,none,none,none,-1,-1
71,PSE-173,Study,bow,Colour_Word,none,none,none,-1,-1
72,PSE-173,Study,brush,Colour_Word,none,none,none,-1,-1
74,PSE-173,Study,ruler,Colour_Word,none,none,none,-1,-1
107,PSE-173,Test,none,BW_Picture,crown,New,no,1,1056
110,PSE-173,Test,none,BW_Picture,couch,New,no,1,1441
112,PSE-173,Test,none,BW_Picture,barrel,New,no,1,1369
131,PSE-173,Test,none,BW_Picture,doll,New,no,1,1880
133,PSE-173,Test,none,BW_Picture,chair,New,yes,0,4576
134,PSE-173,Test,none,BW_Picture,watermelon,New,no,1,2035
164,PSE-173,Test,none,BW_Picture,car,New,yes,0,817
165,PSE-173,Test,none,BW_Picture,celery,New,no,1,1090
167,PSE-173,Test,none,BW_Picture,hammer,New,yes,0,952
169,PSE-173,Test,none,BW_Picture,bottle,New,no,1,1104
177,PSE-173,Test,none,BW_Picture,alligator,New,yes,0,1383
179,PSE-173,Test,none,BW_Picture,clock,New,no,1,925
198,PSE-173,Test,none,BW_Picture,leopard,New,yes,0,1878
200,PSE-173,Test,none,BW_Picture,kangaroo,New,no,1,1074
202,PSE-173,Test,none,BW_Picture,helicopter,New,no,1,1258
203,PSE-173,Test,none,BW_Picture,tomato,New,no,1,1059
204,PSE-173,Test,none,BW_Picture,drum,New,no,1,1017
214,PSE-173,Test,none,BW_Picture,paintbrush,New,no,1,992
232,PSE-173,Test,none,BW_Picture,mitten,New,no,1,2753
240,PSE-173,Test,none,BW_Picture,bowl,New,no,1,1318
96,PSE-173,Test,none,BW_Picture,rabbit,Old,yes,1,1452
99,PSE-173,Test,none,BW_Picture,bell,Old,yes,1,905
111,PSE-173,Test,none,BW_Picture,asparagus,Old,yes,1,1075
122,PSE-173,Test,none,BW_Picture,camel,Old,yes,1,808
123,PSE-173,Test,none,BW_Picture,saw,Old,yes,1,896
132,PSE-173,Test,none,BW_Picture,thimble,Old,yes,1,918
146,PSE-173,Test,none,BW_Picture,church,Old,yes,1,936
147,PSE-173,Test,none,BW_Picture,tiger,Old,yes,1,975
172,PSE-173,Test,none,BW_Picture,vase,Old,yes,1,816
181,PSE-173,Test,none,BW_Picture,peacock,Old,yes,1,967
185,PSE-173,Test,none,BW_Picture,cow,Old,yes,1,799
186,PSE-173,Test,none,BW_Picture,hand,Old,no,0,1289
193,PSE-173,Test,none,BW_Picture,dresser,Old,yes,1,2149
199,PSE-173,Test,none,BW_Picture,suitcase,Old,yes,1,967
205,PSE-173,Test,none,BW_Picture,horse,Old,no,0,1097
210,PSE-173,Test,none,BW_Picture,squirrel,Old,yes,1,959
220,PSE-173,Test,none,BW_Picture,lips,Old,yes,1,888
224,PSE-173,Test,none,BW_Picture,bird,Old,yes,1,2251
231,PSE-173,Test,none,BW_Picture,bus,Old,yes,1,999
233,PSE-173,Test,none,BW_Picture,banana,Old,yes,1,1024
81,PSE-173,Test,none,BW_Word,box,New,yes,0,2946
87,PSE-173,Test,none,BW_Word,pineapple,New,no,1,3036
109,PSE-173,Test,none,BW_Word,bed,New,no,1,3000
118,PSE-173,Test,none,BW_Word,chisel,New,no,1,1080
120,PSE-173,Test,none,BW_Word,sock,New,no,1,1112
138,PSE-173,Test,none,BW_Word,racoon,New,no,1,978
143,PSE-173,Test,none,BW_Word,ring,New,yes,0,1251
151,PSE-173,Test,none,BW_Word,harp,New,no,1,1811
156,PSE-173,Test,none,BW_Word,ear,New,yes,0,1896
161,PSE-173,Test,none,BW_Word,goat,New,no,1,1642
190,PSE-173,Test,none,BW_Word,pen,New,no,1,2223
192,PSE-173,Test,none,BW_Word,lion,New,no,1,1023
201,PSE-173,Test,none,BW_Word,purse,New,no,1,1049
208,PSE-173,Test,none,BW_Word,leaf,New,yes,0,2755
218,PSE-173,Test,none,BW_Word,well,New,no,1,3008
222,PSE-173,Test,none,BW_Word,kite,New,yes,0,1239
226,PSE-173,Test,none,BW_Word,potato,New,no,1,1881
229,PSE-173,Test,none,BW_Word,heart,New,no,1,1032
230,PSE-173,Test,none,BW_Word,tie,New,yes,0,937
238,PSE-173,Test,none,BW_Word,dog,New,no,1,2273
84,PSE-173,Test,none,BW_Word,train,Old,no,0,1601
88,PSE-173,Test,none,BW_Word,coat,Old,no,0,1744
89,PSE-173,Test,none,BW_Word,penguin,Old,yes,1,1192
101,PSE-173,Test,none,BW_Word,balloon,Old,no,0,1545
103,PSE-173,Test,none,BW_Word,screwdriver,Old,no,0,1104
105,PSE-173,Test,none,BW_Word,stove,Old,yes,1,832
128,PSE-173,Test,none,BW_Word,bicycle,Old,yes,1,1969
136,PSE-173,Test,none,BW_Word,bat,Old,yes,1,1170
145,PSE-173,Test,none,BW_Word,envelope,Old,yes,1,817
155,PSE-173,Test,none,BW_Word,lettuce,Old,yes,1,954
159,PSE-173,Test,none,BW_Word,lightbulb,Old,no,0,1369
166,PSE-173,Test,none,BW_Word,belt,Old,yes,1,969
168,PSE-173,Test,none,BW_Word,flag,Old,yes,1,1152
175,PSE-173,Test,none,BW_Word,glass,Old,yes,1,967
184,PSE-173,Test,none,BW_Word,tree,Old,yes,1,903
211,PSE-173,Test,none,BW_Word,rooster,Old,yes,1,898
221,PSE-173,Test,none,BW_Word,book,Old,yes,1,879
223,PSE-173,Test,none,BW_Word,bear,Old,yes,1,800
227,PSE-173,Test,none,BW_Word,caterpillar,Old,yes,1,1604
239,PSE-173,Test,none,BW_Word,lemon,Old,no,0,903
83,PSE-173,Test,none,Colour_Picture,clown,New,no,1,2811
97,PSE-173,Test,none,Colour_Picture,arrow,New,no,1,2111
104,PSE-173,Test,none,Colour_Picture,pencil,New,no,1,1751
106,PSE-173,Test,none,Colour_Picture,cannon,New,no,1,1435
115,PSE-173,Test,none,Colour_Picture,candle,New,no,1,1095
117,PSE-173,Test,none,Colour_Picture,cap,New,no,1,1080
135,PSE-173,Test,none,Colour_Picture,mountain,New,no,1,1498
139,PSE-173,Test,none,Colour_Picture,sweater,New,no,1,1921
140,PSE-173,Test,none,Colour_Picture,star,New,no,1,1000
141,PSE-173,Test,none,Colour_Picture,tortoise,New,yes,0,849
153,PSE-173,Test,none,Colour_Picture,peanut,New,no,1,1068
157,PSE-173,Test,none,Colour_Picture,carrot,New,no,1,1611
158,PSE-173,Test,none,Colour_Picture,pig,New,no,1,1183
160,PSE-173,Test,none,Colour_Picture,foot,New,no,1,1433
163,PSE-173,Test,none,Colour_Picture,lamp,New,yes,0,1124
171,PSE-173,Test,none,Colour_Picture,television,New,no,1,1373
173,PSE-173,Test,none,Colour_Picture,pepper,New,no,1,1041
182,PSE-173,Test,none,Colour_Picture,guitar,New,yes,0,1049
183,PSE-173,Test,none,Colour_Picture,sandwich,New,no,1,1171
225,PSE-173,Test,none,Colour_Picture,snake,New,no,1,2376
90,PSE-173,Test,none,Colour_Picture,lock,Old,no,0,2024
91,PSE-173,Test,none,Colour_Picture,deer,Old,yes,1,913
93,PSE-173,Test,none,Colour_Picture,frog,Old,yes,1,1075
119,PSE-173,Test,none,Colour_Picture,kettle,Old,no,0,1217
121,PSE-173,Test,none,Colour_Picture,umbrella,Old,yes,1,1072
126,PSE-173,Test,none,Colour_Picture,desk,Old,yes,1,1455
129,PSE-173,Test,none,Colour_Picture,pear,Old,no,0,1171
130,PSE-173,Test,none,Colour_Picture,fish,Old,yes,1,1221
137,PSE-173,Test,none,Colour_Picture,snail,Old,yes,1,896
150,PSE-173,Test,none,Colour_Picture,basket,Old,yes,1,1120
170,PSE-173,Test,none,Colour_Picture,bread,Old,yes,1,817
174,PSE-173,Test,none,Colour_Picture,chicken,Old,no,0,1238
178,PSE-173,Test,none,Colour_Picture,truck,Old,yes,1,768
188,PSE-173,Test,none,Colour_Picture,sailboat,Old,yes,1,1509
191,PSE-173,Test,none,Colour_Picture,spool,Old,yes,1,1041
197,PSE-173,Test,none,Colour_Picture,house,Old,yes,1,953
213,PSE-173,Test,none,Colour_Picture,sun,Old,no,0,1546
215,PSE-173,Test,none,Colour_Picture,ball,Old,yes,1,1226
216,PSE-173,Test,none,Colour_Picture,duck,Old,yes,1,746
237,PSE-173,Test,none,Colour_Picture,window,Old,yes,1,1378
94,PSE-173,Test,none,Colour_Word,nose,New,no,1,2490
95,PSE-173,Test,none,Colour_Word,dress,New,no,1,2722
98,PSE-173,Test,none,Colour_Word,apple,New,no,1,1488
100,PSE-173,Test,none,Colour_Word,butterfly,New,yes,0,3426
113,PSE-173,Test,none,Colour_Word,glove,New,no,1,1439
114,PSE-173,Test,none,Colour_Word,pitcher,New,no,1,993
127,PSE-173,Test,none,Colour_Word,grapes,New,no,1,2293
142,PSE-173,Test,none,Colour_Word,iron,New,no,1,1268
152,PSE-173,Test,none,Colour_Word,pumpkin,New,no,1,2818
154,PSE-173,Test,none,Colour_Word,toothbrush,New,no,1,5632
162,PSE-173,Test,none,Colour_Word,refrigerator,New,no,1,1055
176,PSE-173,Test,none,Colour_Word,giraffe,New,no,1,1225
187,PSE-173,Test,none,Colour_Word,watch,New,no,1,2128
194,PSE-173,Test,none,Colour_Word,fox,New,no,1,1201
195,PSE-173,Test,none,Colour_Word,shirt,New,no,1,1441
196,PSE-173,Test,none,Colour_Word,door,New,no,1,1280
207,PSE-173,Test,none,Colour_Word,barn,New,no,1,1176
212,PSE-173,Test,none,Colour_Word,motorcycle,New,no,1,2020
219,PSE-173,Test,none,Colour_Word,salt,New,no,1,1056
228,PSE-173,Test,none,Colour_Word,boot,New,no,1,1078
82,PSE-173,Test,none,Colour_Word,stool,Old,yes,1,3656
85,PSE-173,Test,none,Colour_Word,artichoke,Old,yes,1,1209
86,PSE-173,Test,none,Colour_Word,knife,Old,yes,1,969
92,PSE-173,Test,none,Colour_Word,strawberry,Old,yes,1,1242
102,PSE-173,Test,none,Colour_Word,violin,Old,yes,1,807
108,PSE-173,Test,none,Colour_Word,axe,Old,yes,1,809
116,PSE-173,Test,none,Colour_Word,ruler,Old,yes,1,881
124,PSE-173,Test,none,Colour_Word,button,Old,yes,1,1529
125,PSE-173,Test,none,Colour_Word,brush,Old,no,0,1096
144,PSE-173,Test,none,Colour_Word,cake,Old,yes,1,744
148,PSE-173,Test,none,Colour_Word,trumpet,Old,yes,1,1063
149,PSE-173,Test,none,Colour_Word,wagon,Old,yes,1,1278
180,PSE-173,Test,none,Colour_Word,eagle,Old,yes,1,752
189,PSE-173,Test,none,Colour_Word,sled,Old,no,0,808
206,PSE-173,Test,none,Colour_Word,bow,Old,no,0,1175
209,PSE-173,Test,none,Colour_Word,grasshopper,Old,yes,1,1035
217,PSE-173,Test,none,Colour_Word,orange,Old,no,0,1055
234,PSE-173,Test,none,Colour_Word,flower,Old,yes,1,1164
235,PSE-173,Test,none,Colour_Word,owl,Old,yes,1,1005
236,PSE-173,Test,none,Colour_Word,corn,Old,yes,1,1009
2,PSE-175,Study,box,BW_Picture,none,none,none,-1,-1
7,PSE-175,Study,lock,BW_Picture,none,none,none,-1,-1
9,PSE-175,Study,grapes,BW_Picture,none,none,none,-1,-1
13,PSE-175,Study,umbrella,BW_Picture,none,none,none,-1,-1
16,PSE-175,Study,refrigerator,BW_Picture,none,none,none,-1,-1
25,PSE-175,Study,door,BW_Picture,none,none,none,-1,-1
33,PSE-175,Study,orange,BW_Picture,none,none,none,-1,-1
38,PSE-175,Study,peacock,BW_Picture,none,none,none,-1,-1
40,PSE-175,Study,glove,BW_Picture,none,none,none,-1,-1
44,PSE-175,Study,iron,BW_Picture,none,none,none,-1,-1
45,PSE-175,Study,bowl,BW_Picture,none,none,none,-1,-1
47,PSE-175,Study,window,BW_Picture,none,none,none,-1,-1
50,PSE-175,Study,belt,BW_Picture,none,none,none,-1,-1
52,PSE-175,Study,potato,BW_Picture,none,none,none,-1,-1
54,PSE-175,Study,pumpkin,BW_Picture,none,none,none,-1,-1
59,PSE-175,Study,harp,BW_Picture,none,none,none,-1,-1
70,PSE-175,Study,foot,BW_Picture,none,none,none,-1,-1
72,PSE-175,Study,heart,BW_Picture,none,none,none,-1,-1
78,PSE-175,Study,lettuce,BW_Picture,none,none,none,-1,-1
80,PSE-175,Study,screwdriver,BW_Picture,none,none,none,-1,-1
3,PSE-175,Study,artichoke,BW_Word,none,none,none,-1,-1
11,PSE-175,Study,bus,BW_Word,none,none,none,-1,-1
14,PSE-175,Study,finger,BW_Word,none,none,none,-1,-1
23,PSE-175,Study,dress,BW_Word,none,none,none,-1,-1
24,PSE-175,Study,lion,BW_Word,none,none,none,-1,-1
26,PSE-175,Study,bicycle,BW_Word,none,none,none,-1,-1
29,PSE-175,Study,kite,BW_Word,none,none,none,-1,-1
30,PSE-175,Study,butterfly,BW_Word,none,none,none,-1,-1
32,PSE-175,Study,dresser,BW_Word,none,none,none,-1,-1
39,PSE-175,Study,caterpillar,BW_Word,none,none,none,-1,-1
48,PSE-175,Study,cake,BW_Word,none,none,none,-1,-1
55,PSE-175,Study,horse,BW_Word,none,none,none,-1,-1
62,PSE-175,Study,chair,BW_Word,none,none,none,-1,-1
63,PSE-175,Study,bell,BW_Word,none,none,none,-1,-1
67,PSE-175,Study,doll,BW_Word,none,none,none,-1,-1
68,PSE-175,Study,book,BW_Word,none,none,none,-1,-1
69,PSE-175,Study,button,BW_Word,none,none,none,-1,-1
73,PSE-175,Study,nose,BW_Word,none,none,none,-1,-1
77,PSE-175,Study,hammer,BW_Word,none,none,none,-1,-1
79,PSE-175,Study,barn,BW_Word,none,none,none,-1,-1
5,PSE-175,Study,ring,Colour_Picture,none,none,none,-1,-1
8,PSE-175,Study,desk,Colour_Picture,none,none,none,-1,-1
15,PSE-175,Study,paintbrush,Colour_Picture,none,none,none,-1,-1
18,PSE-175,Study,guitar,Colour_Picture,none,none,none,-1,-1
19,PSE-175,Study,tie,Colour_Picture,none,none,none,-1,-1
21,PSE-175,Study,corn,Colour_Picture,none,none,none,-1,-1
22,PSE-175,Study,salt,Colour_Picture,none,none,none,-1,-1
27,PSE-175,Study,knife,Colour_Picture,none,none,none,-1,-1
28,PSE-175,Study,brush,Colour_Picture,none,none,none,-1,-1
34,PSE-175,Study,sled,Colour_Picture,none,none,none,-1,-1
37,PSE-175,Study,grasshopper,Colour_Picture,none,none,none,-1,-1
42,PSE-175,Study,cherry,Colour_Picture,none,none,none,-1,-1
43,PSE-175,Study,apple,Colour_Picture,none,none,none,-1,-1
46,PSE-175,Study,trumpet,Colour_Picture,none,none,none,-1,-1
49,PSE-175,Study,car,Colour_Picture,none,none,none,-1,-1
51,PSE-175,Study,squirrel,Colour_Picture,none,none,none,-1,-1
66,PSE-175,Study,leopard,Colour_Picture,none,none,none,-1,-1
74,PSE-175,Study,kettle,Colour_Picture,none,none,none,-1,-1
75,PSE-175,Study,clown,Colour_Picture,none,none,none,-1,-1
76,PSE-175,Study,well,Colour_Picture,none,none,none,-1,-1
1,PSE-175,Study,lips,Colour_Word,none,none,none,-1,-1
4,PSE-175,Study,sweater,Colour_Word,none,none,none,-1,-1
6,PSE-175,Study,sock,Colour_Word,none,none,none,-1,-1
10,PSE-175,Study,cap,Colour_Word,none,none,none,-1,-1
12,PSE-175,Study,train,Colour_Word,none,none,none,-1,-1
17,PSE-175,Study,house,Colour_Word,none,none,none,-1,-1
20,PSE-175,Study,monkey,Colour_Word,none,none,none,-1,-1
31,PSE-175,Study,asparagus,Colour_Word,none,none,none,-1,-1
35,PSE-175,Study,lightbulb,Colour_Word,none,none,none,-1,-1
36,PSE-175,Study,onion,Colour_Word,none,none,none,-1,-1
41,PSE-175,Study,strawberry,Colour_Word,none,none,none,-1,-1
53,PSE-175,Study,axe,Colour_Word,none,none,none,-1,-1
56,PSE-175,Study,barrel,Colour_Word,none,none,none,-1,-1
57,PSE-175,Study,kangaroo,Colour_Word,none,none,none,-1,-1
58,PSE-175,Study,alligator,Colour_Word,none,none,none,-1,-1
60,PSE-175,Study,suitcase,Colour_Word,none,none,none,-1,-1
61,PSE-175,Study,crown,Colour_Word,none,none,none,-1,-1
64,PSE-175,Study,watermelon,Colour_Word,none,none,none,-1,-1
65,PSE-175,Study,tomato,Colour_Word,none,none,none,-1,-1
71,PSE-175,Study,motorcycle,Colour_Word,none,none,none,-1,-1
81,PSE-175,Test,none,BW_Picture,stool,New,no,1,4045
89,PSE-175,Test,none,BW_Picture,ruler,New,yes,0,1169
95,PSE-175,Test,none,BW_Picture,television,New,no,1,1256
108,PSE-175,Test,none,BW_Picture,tree,New,no,1,1696
114,PSE-175,Test,none,BW_Picture,tortoise,New,no,1,1266
122,PSE-175,Test,none,BW_Picture,envelope,New,no,1,1963
125,PSE-175,Test,none,BW_Picture,helicopter,New,no,1,2572
137,PSE-175,Test,none,BW_Picture,pitcher,New,no,1,1466
139,PSE-175,Test,none,BW_Picture,sandwich,New,no,1,1239
144,PSE-175,Test,none,BW_Picture,sailboat,New,no,1,2291
148,PSE-175,Test,none,BW_Picture,vase,New,no,1,1444
170,PSE-175,Test,none,BW_Picture,thimble,New,no,1,2707
178,PSE-175,Test,none,BW_Picture,star,New,no,1,1864
184,PSE-175,Test,none,BW_Picture,balloon,New,no,1,1188
189,PSE-175,Test,none,BW_Picture,violin,New,yes,0,1763
193,PSE-175,Test,none,BW_Picture,ear,New,no,1,1207
215,PSE-175,Test,none,BW_Picture,cannon,New,no,1,1251
226,PSE-175,Test,none,BW_Picture,basket,New,no,1,2043
231,PSE-175,Test,none,BW_Picture,shirt,New,no,1,1309
232,PSE-175,Test,none,BW_Picture,drum,New,no,1,1565
99,PSE-175,Test,none,BW_Picture,lettuce,Old,yes,1,1173
100,PSE-175,Test,none,BW_Picture,refrigerator,Old,yes,1,1472
112,PSE-175,Test,none,BW_Picture,heart,Old,yes,1,849
116,PSE-175,Test,none,BW_Picture,foot,Old,yes,1,1178
124,PSE-175,Test,none,BW_Picture,potato,Old,yes,1,1358
127,PSE-175,Test,none,BW_Picture,pumpkin,Old,yes,1,1257
128,PSE-175,Test,none,BW_Picture,bowl,Old,yes,1,1229
138,PSE-175,Test,none,BW_Picture,iron,Old,yes,1,983
150,PSE-175,Test,none,BW_Picture,glove,Old,yes,1,1989
154,PSE-175,Test,none,BW_Picture,box,Old,yes,1,807
161,PSE-175,Test,none,BW_Picture,lock,Old,yes,1,946
169,PSE-175,Test,none,BW_Picture,door,Old,yes,1,1737
172,PSE-175,Test,none,BW_Picture,orange,Old,yes,1,1043
177,PSE-175,Test,none,BW_Picture,belt,Old,yes,1,1813
204,PSE-175,Test,none,BW_Picture,harp,Old,yes,1,918
213,PSE-175,Test,none,BW_Picture,peacock,Old,yes,1,1221
220,PSE-175,Test,none,BW_Picture,umbrella,Old,yes,1,770
221,PSE-175,Test,none,BW_Picture,window,Old,yes,1,682
223,PSE-175,Test,none,BW_Picture,grapes,Old,yes,1,887
233,PSE-175,Test,none,BW_Picture,screwdriver,Old,yes,1,1531
84,PSE-175,Test,none,BW_Word,giraffe,New,no,1,2198
85,PSE-175,Test,none,BW_Word,bear,New,no,1,1340
98,PSE-175,Test,none,BW_Word,flag,New,no,1,1540
105,PSE-175,Test,none,BW_Word,pig,New,no,1,1163
106,PSE-175,Test,none,BW_Word,sun,New,no,1,1387
130,PSE-175,Test,none,BW_Word,stove,New,yes,0,1894
136,PSE-175,Test,none,BW_Word,pen,New,no,1,1899
147,PSE-175,Test,none,BW_Word,watch,New,yes,0,1020
149,PSE-175,Test,none,BW_Word,truck,New,yes,0,2550
155,PSE-175,Test,none,BW_Word,chisel,New,no,1,3120
163,PSE-175,Test,none,BW_Word,cow,New,yes,0,2226
166,PSE-175,Test,none,BW_Word,bow,New,no,1,1810
174,PSE-175,Test,none,BW_Word,snail,New,yes,0,2644
175,PSE-175,Test,none,BW_Word,lemon,New,no,1,1402
176,PSE-175,Test,none,BW_Word,celery,New,no,1,933
197,PSE-175,Test,none,BW_Word,owl,New,no,1,2186
200,PSE-175,Test,none,BW_Word,ball,New,yes,0,1737
214,PSE-175,Test,none,BW_Word,banana,New,no,1,1202
234,PSE-175,Test,none,BW_Word,flower,New,yes,0,1625
239,PSE-175,Test,none,BW_Word,spool,New,no,1,2001
86,PSE-175,Test,none,BW_Word,barn,Old,no,0,1442
87,PSE-175,Test,none,BW_Word,bus,Old,yes,1,1367
93,PSE-175,Test,none,BW_Word,dress,Old,yes,1,1041
115,PSE-175,Test,none,BW_Word,dresser,Old,yes,1,1368
121,PSE-175,Test,none,BW_Word,button,Old,yes,1,2104
133,PSE-175,Test,none,BW_Word,finger,Old,yes,1,1517
135,PSE-175,Test,none,BW_Word,bell,Old,yes,1,1198
141,PSE-175,Test,none,BW_Word,horse,Old,yes,1,2044
151,PSE-175,Test,none,BW_Word,doll,Old,yes,1,777
160,PSE-175,Test,none,BW_Word,lion,Old,yes,1,1974
186,PSE-175,Test,none,BW_Word,caterpillar,Old,no,0,1274
195,PSE-175,Test,none,BW_Word,chair,Old,no,0,2041
207,PSE-175,Test,none,BW_Word,cake,Old,yes,1,1093
208,PSE-175,Test,none,BW_Word,kite,Old,yes,1,1077
218,PSE-175,Test,none,BW_Word,butterfly,Old,yes,1,1012
222,PSE-175,Test,none,BW_Word,bicycle,Old,yes,1,722
225,PSE-175,Test,none,BW_Word,book,Old,no,0,1277
228,PSE-175,Test,none,BW_Word,nose,Old,yes,1,1858
236,PSE-175,Test,none,BW_Word,hammer,Old,yes,1,1032
237,PSE-175,Test,none,BW_Word,artichoke,Old,yes,1,1200
88,PSE-175,Test,none,Colour_Picture,lobster,New,no,1,2101
92,PSE-175,Test,none,Colour_Picture,fish,New,no,1,1390
94,PSE-175,Test,none,Colour_Picture,wagon,New,no,1,1595
96,PSE-175,Test,none,Colour_Picture,coat,New,no,1,1305
110,PSE-175,Test,none,Colour_Picture,bed,New,no,1,3222
111,PSE-175,Test,none,Colour_Picture,chicken,New,no,1,1598
123,PSE-175,Test,none,Colour_Picture,deer,New,no,1,1873
143,PSE-175,Test,none,Colour_Picture,boot,New,no,1,2136
164,PSE-175,Test,none,Colour_Picture,pencil,New,yes,0,1412
165,PSE-175,Test,none,Colour_Picture,racoon,New,no,1,1755
167,PSE-175,Test,none,Colour_Picture,bird,New,no,1,1170
173,PSE-175,Test,none,Colour_Picture,pear,New,no,1,4280
179,PSE-175,Test,none,Colour_Picture,rooster,New,no,1,2800
181,PSE-175,Test,none,Colour_Picture,snake,New,no,1,1924
182,PSE-175,Test,none,Colour_Picture,goat,New,no,1,967
191,PSE-175,Test,none,Colour_Picture,duck,New,no,1,1688
201,PSE-175,Test,none,Colour_Picture,church,New,no,1,1261
209,PSE-175,Test,none,Colour_Picture,hand,New,no,1,2196
212,PSE-175,Test,none,Colour_Picture,penguin,New,no,1,820
216,PSE-175,Test,none,Colour_Picture,clock,New,no,1,1861
91,PSE-175,Test,none,Colour_Picture,ring,Old,yes,1,1008
104,PSE-175,Test,none,Colour_Picture,clown,Old,yes,1,1223
107,PSE-175,Test,none,Colour_Picture,guitar,Old,yes,1,943
117,PSE-175,Test,none,Colour_Picture,corn,Old,yes,1,886
120,PSE-175,Test,none,Colour_Picture,apple,Old,yes,1,1123
134,PSE-175,Test,none,Colour_Picture,salt,Old,yes,1,1308
142,PSE-175,Test,none,Colour_Picture,cherry,Old,yes,1,1203
152,PSE-175,Test,none,Colour_Picture,tie,Old,yes,1,731
153,PSE-175,Test,none,Colour_Picture,kettle,Old,yes,1,1015
158,PSE-175,Test,none,Colour_Picture,well,Old,yes,1,695
159,PSE-175,Test,none,Colour_Picture,brush,Old,yes,1,1192
168,PSE-175,Test,none,Colour_Picture,sled,Old,yes,1,1340
187,PSE-175,Test,none,Colour_Picture,car,Old,yes,1,1198
190,PSE-175,Test,none,Colour_Picture,desk,Old,yes,1,1149
198,PSE-175,Test,none,Colour_Picture,squirrel,Old,yes,1,1563
203,PSE-175,Test,none,Colour_Picture,trumpet,Old,yes,1,944
206,PSE-175,Test,none,Colour_Picture,knife,Old,yes,1,930
217,PSE-175,Test,none,Colour_Picture,leopard,Old,yes,1,1106
224,PSE-175,Test,none,Colour_Picture,paintbrush,Old,yes,1,867
240,PSE-175,Test,none,Colour_Picture,grasshopper,Old,yes,1,1055
82,PSE-175,Test,none,Colour_Word,pineapple,New,yes,0,3547
90,PSE-175,Test,none,Colour_Word,saw,New,no,1,1333
103,PSE-175,Test,none,Colour_Word,leaf,New,no,1,2139
113,PSE-175,Test,none,Colour_Word,mitten,New,yes,0,1963
119,PSE-175,Test,none,Colour_Word,bat,New,no,1,2757
126,PSE-175,Test,none,Colour_Word,bread,New,yes,0,2173
129,PSE-175,Test,none,Colour_Word,fox,New,no,1,3165
145,PSE-175,Test,none,Colour_Word,purse,New,yes,0,1361
146,PSE-175,Test,none,Colour_Word,toothbrush,New,yes,0,1072
180,PSE-175,Test,none,Colour_Word,rabbit,New,no,1,1960
183,PSE-175,Test,none,Colour_Word,candle,New,no,1,1329
185,PSE-175,Test,none,Colour_Word,tiger,New,no,1,1569
188,PSE-175,Test,none,Colour_Word,table,New,yes,0,2488
192,PSE-175,Test,none,Colour_Word,frog,New,no,1,1095
194,PSE-175,Test,none,Colour_Word,peanut,New,no,1,1362
210,PSE-175,Test,none,Colour_Word,eagle,New,yes,0,2282
211,PSE-175,Test,none,Colour_Word,carrot,New,no,1,1186
219,PSE-175,Test,none,Colour_Word,camel,New,yes,0,2237
227,PSE-175,Test,none,Colour_Word,arrow,New,no,1,1364
229,PSE-175,Test,none,Colour_Word,mountain,New,yes,0,2495
83,PSE-175,Test,none,Colour_Word,house,Old,yes,1,1375
97,PSE-175,Test,none,Colour_Word,sock,Old,yes,1,1002
101,PSE-175,Test,none,Colour_Word,lips,Old,yes,1,1177
102,PSE-175,Test,none,Colour_Word,crown,Old,yes,1,806
109,PSE-175,Test,none,Colour_Word,barrel,Old,yes,1,1399
118,PSE-175,Test,none,Colour_Word,lightbulb,Old,yes,1,1077
131,PSE-175,Test,none,Colour_Word,suitcase,Old,yes,1,962
132,PSE-175,Test,none,Colour_Word,strawberry,Old,yes,1,1025
140,PSE-175,Test,none,Colour_Word,sweater,Old,yes,1,1364
156,PSE-175,Test,none,Colour_Word,axe,Old,yes,1,888
157,PSE-175,Test,none,Colour_Word,asparagus,Old,yes,1,972
162,PSE-175,Test,none,Colour_Word,tomato,Old,yes,1,886
171,PSE-175,Test,none,Colour_Word,monkey,Old,yes,1,2210
196,PSE-175,Test,none,Colour_Word,train,Old,yes,1,1268
199,PSE-175,Test,none,Colour_Word,onion,Old,yes,1,1285
202,PSE-175,Test,none,Colour_Word,motorcycle,Old,yes,1,1040
205,PSE-175,Test,none,Colour_Word,watermelon,Old,yes,1,905
230,PSE-175,Test,none,Colour_Word,alligator,Old,no,0,1095
235,PSE-175,Test,none,Colour_Word,cap,Old,yes,1,1043
238,PSE-175,Test,none,Colour_Word,kangaroo,Old,yes,1,1245
3,PSE-176,Study,mountain,BW_Picture,none,none,none,-1,-1
8,PSE-176,Study,leaf,BW_Picture,none,none,none,-1,-1
15,PSE-176,Study,lips,BW_Picture,none,none,none,-1,-1
18,PSE-176,Study,grapes,BW_Picture,none,none,none,-1,-1
21,PSE-176,Study,grasshopper,BW_Picture,none,none,none,-1,-1
25,PSE-176,Study,pig,BW_Picture,none,none,none,-1,-1
28,PSE-176,Study,wagon,BW_Picture,none,none,none,-1,-1
31,PSE-176,Study,orange,BW_Picture,none,none,none,-1,-1
44,PSE-176,Study,fish,BW_Picture,none,none,none,-1,-1
46,PSE-176,Study,butterfly,BW_Picture,none,none,none,-1,-1
48,PSE-176,Study,barn,BW_Picture,none,none,none,-1,-1
51,PSE-176,Study,watermelon,BW_Picture,none,none,none,-1,-1
54,PSE-176,Study,tiger,BW_Picture,none,none,none,-1,-1
62,PSE-176,Study,eagle,BW_Picture,none,none,none,-1,-1
63,PSE-176,Study,bird,BW_Picture,none,none,none,-1,-1
65,PSE-176,Study,door,BW_Picture,none,none,none,-1,-1
66,PSE-176,Study,lobster,BW_Picture,none,none,none,-1,-1
67,PSE-176,Study,train,BW_Picture,none,none,none,-1,-1
69,PSE-176,Study,artichoke,BW_Picture,none,none,none,-1,-1
80,PSE-176,Study,rooster,BW_Picture,none,none,none,-1,-1
1,PSE-176,Study,nose,BW_Word,none,none,none,-1,-1
2,PSE-176,Study,snail,BW_Word,none,none,none,-1,-1
6,PSE-176,Study,lettuce,BW_Word,none,none,none,-1,-1
10,PSE-176,Study,paintbrush,BW_Word,none,none,none,-1,-1
11,PSE-176,Study,lamp,BW_Word,none,none,none,-1,-1
12,PSE-176,Study,giraffe,BW_Word,none,none,none,-1,-1
20,PSE-176,Study,pen,BW_Word,none,none,none,-1,-1
27,PSE-176,Study,rabbit,BW_Word,none,none,none,-1,-1
33,PSE-176,Study,box,BW_Word,none,none,none,-1,-1
47,PSE-176,Study,stool,BW_Word,none,none,none,-1,-1
49,PSE-176,Study,chair,BW_Word,none,none,none,-1,-1
55,PSE-176,Study,ring,BW_Word,none,none,none,-1,-1
57,PSE-176,Study,peacock,BW_Word,none,none,none,-1,-1
58,PSE-176,Study,table,BW_Word,none,none,none,-1,-1
71,PSE-176,Study,violin,BW_Word,none,none,none,-1,-1
73,PSE-176,Study,spool,BW_Word,none,none,none,-1,-1
75,PSE-176,Study,desk,BW_Word,none,none,none,-1,-1
76,PSE-176,Study,doll,BW_Word,none,none,none,-1,-1
78,PSE-176,Study,tortoise,BW_Word,none,none,none,-1,-1
79,PSE-176,Study,purse,BW_Word,none,none,none,-1,-1
7,PSE-176,Study,bottle,Colour_Picture,none,none,none,-1,-1
9,PSE-176,Study,thimble,Colour_Picture,none,none,none,-1,-1
26,PSE-176,Study,glass,Colour_Picture,none,none,none,-1,-1
29,PSE-176,Study,helicopter,Colour_Picture,none,none,none,-1,-1
32,PSE-176,Study,toothbrush,Colour_Picture,none,none,none,-1,-1
34,PSE-176,Study,sled,Colour_Picture,none,none,none,-1,-1
35,PSE-176,Study,lock,Colour_Picture,none,none,none,-1,-1
37,PSE-176,Study,basket,Colour_Picture,none,none,none,-1,-1
40,PSE-176,Study,flag,Colour_Picture,none,none,none,-1,-1
41,PSE-176,Study,goat,Colour_Picture,none,none,none,-1,-1
42,PSE-176,Study,cherry,Colour_Picture,none,none,none,-1,-1
45,PSE-176,Study,cap,Colour_Picture,none,none,none,-1,-1
50,PSE-176,Study,chisel,Colour_Picture,none,none,none,-1,-1
52,PSE-176,Study,glove,Colour_Picture,none,none,none,-1,-1
56,PSE-176,Study,cake,Colour_Picture,none,none,none,-1,-1
59,PSE-176,Study,frog,Colour_Picture,none,none,none,-1,-1
61,PSE-176,Study,shoe,Colour_Picture,none,none,none,-1,-1
64,PSE-176,Study,salt,Colour_Picture,none,none,none,-1,-1
70,PSE-176,Study,racoon,Colour_Picture,none,none,none,-1,-1
72,PSE-176,Study,kite,Colour_Picture,none,none,none,-1,-1
4,PSE-176,Study,cannon,Colour_Word,none,none,none,-1,-1
5,PSE-176,Study,bed,Colour_Word,none,none,none,-1,-1
13,PSE-176,Study,television,Colour_Word,none,none,none,-1,-1
14,PSE-176,Study,dress,Colour_Word,none,none,none,-1,-1
16,PSE-176,Study,brush,Colour_Word,none,none,none,-1,-1
17,PSE-176,Study,bread,Colour_Word,none,none,none,-1,-1
19,PSE-176,Study,strawberry,Colour_Word,none,none,none,-1,-1
22,PSE-176,Study,sock,Colour_Word,none,none,none,-1,-1
23,PSE-176,Study,ruler,Colour_Word,none,none,none,-1,-1
24,PSE-176,Study,saw,Colour_Word,none,none,none,-1,-1
30,PSE-176,Study,owl,Colour_Word,none,none,none,-1,-1
36,PSE-176,Study,deer,Colour_Word,none,none,none,-1,-1
38,PSE-176,Study,foot,Colour_Word,none,none,none,-1,-1
39,PSE-176,Study,axe,Colour_Word,none,none,none,-1,-1
43,PSE-176,Study,onion,Colour_Word,none,none,none,-1,-1
53,PSE-176,Study,bow,Colour_Word,none,none,none,-1,-1
60,PSE-176,Study,chicken,Colour_Word,none,none,none,-1,-1
68,PSE-176,Study,sweater,Colour_Word,none,none,none,-1,-1
74,PSE-176,Study,bear,Colour_Word,none,none,none,-1,-1
77,PSE-176,Study,pumpkin,Colour_Word,none,none,none,-1,-1
105,PSE-176,Test,none,BW_Picture,kettle,New,no,1,1415
110,PSE-176,Test,none,BW_Picture,guitar,New,no,1,2220
112,PSE-176,Test,none,BW_Picture,dog,New,no,1,1465
113,PSE-176,Test,none,BW_Picture,tomato,New,no,1,1183
114,PSE-176,Test,none,BW_Picture,pencil,New,no,1,1287
123,PSE-176,Test,none,BW_Picture,button,New,no,1,1143
131,PSE-176,Test,none,BW_Picture,corn,New,yes,0,3175
141,PSE-176,Test,none,BW_Picture,couch,New,no,1,2216
145,PSE-176,Test,none,BW_Picture,hand,New,no,1,2857
151,PSE-176,Test,none,BW_Picture,shirt,New,no,1,2126
159,PSE-176,Test,none,BW_Picture,bicycle,New,no,1,1168
165,PSE-176,Test,none,BW_Picture,bowl,New,no,1,1385
178,PSE-176,Test,none,BW_Picture,monkey,New,no,1,2408
180,PSE-176,Test,none,BW_Picture,drum,New,no,1,1592
194,PSE-176,Test,none,BW_Picture,cow,New,yes,0,3313
206,PSE-176,Test,none,BW_Picture,arrow,New,no,1,1998
208,PSE-176,Test,none,BW_Picture,knife,New,no,1,1247
212,PSE-176,Test,none,BW_Picture,car,New,no,1,1489
225,PSE-176,Test,none,BW_Picture,bell,New,yes,0,2721
227,PSE-176,Test,none,BW_Picture,caterpillar,New,no,1,1209
82,PSE-176,Test,none,BW_Picture,pig,Old,yes,1,1728
96,PSE-176,Test,none,BW_Picture,train,Old,no,0,1126
109,PSE-176,Test,none,BW_Picture,rooster,Old,no,0,2355
121,PSE-176,Test,none,BW_Picture,door,Old,no,0,1272
125,PSE-176,Test,none,BW_Picture,bird,Old,yes,1,1304
127,PSE-176,Test,none,BW_Picture,wagon,Old,yes,1,2009
139,PSE-176,Test,none,BW_Picture,fish,Old,no,0,2834
150,PSE-176,Test,none,BW_Picture,tiger,Old,yes,1,1576
156,PSE-176,Test,none,BW_Picture,barn,Old,yes,1,969
173,PSE-176,Test,none,BW_Picture,grasshopper,Old,yes,1,1039
179,PSE-176,Test,none,BW_Picture,artichoke,Old,yes,1,1543
188,PSE-176,Test,none,BW_Picture,orange,Old,no,0,2402
191,PSE-176,Test,none,BW_Picture,grapes,Old,yes,1,1113
198,PSE-176,Test,none,BW_Picture,lips,Old,yes,1,1112
201,PSE-176,Test,none,BW_Picture,eagle,Old,no,0,1922
205,PSE-176,Test,none,BW_Picture,lobster,Old,no,0,1489
217,PSE-176,Test,none,BW_Picture,butterfly,Old,yes,1,1208
221,PSE-176,Test,none,BW_Picture,watermelon,Old,yes,1,955
233,PSE-176,Test,none,BW_Picture,mountain,Old,yes,1,1504
236,PSE-176,Test,none,BW_Picture,leaf,Old,no,0,1303
89,PSE-176,Test,none,BW_Word,screwdriver,New,no,1,2344
95,PSE-176,Test,none,BW_Word,camel,New,no,1,2224
98,PSE-176,Test,none,BW_Word,celery,New,no,1,1697
102,PSE-176,Test,none,BW_Word,heart,New,no,1,5057
103,PSE-176,Test,none,BW_Word,dresser,New,no,1,2934
106,PSE-176,Test,none,BW_Word,sailboat,New,no,1,1439
115,PSE-176,Test,none,BW_Word,pepper,New,no,1,1662
126,PSE-176,Test,none,BW_Word,motorcycle,New,no,1,2392
128,PSE-176,Test,none,BW_Word,asparagus,New,no,1,1248
152,PSE-176,Test,none,BW_Word,finger,New,no,1,1287
157,PSE-176,Test,none,BW_Word,stove,New,no,1,3374
166,PSE-176,Test,none,BW_Word,star,New,no,1,1876
167,PSE-176,Test,none,BW_Word,book,New,no,1,1255
186,PSE-176,Test,none,BW_Word,fox,New,no,1,1570
189,PSE-176,Test,none,BW_Word,bat,New,no,1,1387
214,PSE-176,Test,none,BW_Word,boot,New,yes,0,2995
218,PSE-176,Test,none,BW_Word,horse,New,no,1,2281
222,PSE-176,Test,none,BW_Word,carrot,New,yes,0,1544
237,PSE-176,Test,none,BW_Word,squirrel,New,no,1,2136
239,PSE-176,Test,none,BW_Word,kangaroo,New,no,1,2011
88,PSE-176,Test,none,BW_Word,ring,Old,yes,1,1951
99,PSE-176,Test,none,BW_Word,lamp,Old,yes,1,1583
117,PSE-176,Test,none,BW_Word,tortoise,Old,yes,1,995
124,PSE-176,Test,none,BW_Word,chair,Old,yes,1,1141
129,PSE-176,Test,none,BW_Word,pen,Old,no,0,1243
135,PSE-176,Test,none,BW_Word,rabbit,Old,yes,1,2626
143,PSE-176,Test,none,BW_Word,giraffe,Old,no,0,1432
146,PSE-176,Test,none,BW_Word,spool,Old,no,0,2392
154,PSE-176,Test,none,BW_Word,violin,Old,no,0,1024
168,PSE-176,Test,none,BW_Word,doll,Old,no,0,1593
170,PSE-176,Test,none,BW_Word,snail,Old,yes,1,1843
174,PSE-176,Test,none,BW_Word,table,Old,no,0,2435
190,PSE-176,Test,none,BW_Word,peacock,Old,yes,1,1198
192,PSE-176,Test,none,BW_Word,nose,Old,no,0,1291
193,PSE-176,Test,none,BW_Word,desk,Old,no,0,1161
195,PSE-176,Test,none,BW_Word,box,Old,no,0,1195
202,PSE-176,Test,none,BW_Word,paintbrush,Old,yes,1,1312
209,PSE-176,Test,none,BW_Word,lettuce,Old,no,0,1015
210,PSE-176,Test,none,BW_Word,stool,Old,yes,1,985
231,PSE-176,Test,none,BW_Word,purse,Old,no,0,1665
81,PSE-176,Test,none,Colour_Picture,refrigerator,New,no,1,3646
84,PSE-176,Test,none,Colour_Picture,lightbulb,New,no,1,2564
85,PSE-176,Test,none,Colour_Picture,hammer,New,no,1,1889
86,PSE-176,Test,none,Colour_Picture,snake,New,no,1,2075
94,PSE-176,Test,none,Colour_Picture,watch,New,no,1,4585
100,PSE-176,Test,none,Colour_Picture,crown,New,no,1,1376
119,PSE-176,Test,none,Colour_Picture,peanut,New,no,1,1176
130,PSE-176,Test,none,Colour_Picture,harp,New,no,1,2160
136,PSE-176,Test,none,Colour_Picture,tree,New,no,1,2217
148,PSE-176,Test,none,Colour_Picture,iron,New,no,1,2352
158,PSE-176,Test,none,Colour_Picture,potato,New,no,1,2161
207,PSE-176,Test,none,Colour_Picture,church,New,no,1,1471
211,PSE-176,Test,none,Colour_Picture,coat,New,no,1,1425
216,PSE-176,Test,none,Colour_Picture,well,New,no,1,3295
219,PSE-176,Test,none,Colour_Picture,sandwich,New,no,1,2102
220,PSE-176,Test,none,Colour_Picture,alligator,New,no,1,1176
226,PSE-176,Test,none,Colour_Picture,umbrella,New,no,1,1064
234,PSE-176,Test,none,Colour_Picture,flower,New,no,1,2161
235,PSE-176,Test,none,Colour_Picture,pineapple,New,yes,0,1656
240,PSE-176,Test,none,Colour_Picture,lemon,New,no,1,1777
83,PSE-176,Test,none,Colour_Picture,cherry,Old,yes,1,3443
93,PSE-176,Test,none,Colour_Picture,shoe,Old,no,0,1040
104,PSE-176,Test,none,Colour_Picture,frog,Old,yes,1,1008
111,PSE-176,Test,none,Colour_Picture,toothbrush,Old,yes,1,1042
120,PSE-176,Test,none,Colour_Picture,glove,Old,yes,1,857
134,PSE-176,Test,none,Colour_Picture,lock,Old,yes,1,2321
137,PSE-176,Test,none,Colour_Picture,chisel,Old,yes,1,1102
140,PSE-176,Test,none,Colour_Picture,basket,Old,no,0,1740
149,PSE-176,Test,none,Colour_Picture,flag,Old,no,0,1359
155,PSE-176,Test,none,Colour_Picture,thimble,Old,yes,1,1184
162,PSE-176,Test,none,Colour_Picture,kite,Old,no,0,1155
175,PSE-176,Test,none,Colour_Picture,sled,Old,no,0,1018
181,PSE-176,Test,none,Colour_Picture,racoon,Old,no,0,1055
182,PSE-176,Test,none,Colour_Picture,cap,Old,yes,1,2890
197,PSE-176,Test,none,Colour_Picture,cake,Old,no,0,1583
204,PSE-176,Test,none,Colour_Picture,helicopter,Old,no,0,959
213,PSE-176,Test,none,Colour_Picture,goat,Old,yes,1,1975
215,PSE-176,Test,none,Colour_Picture,salt,Old,yes,1,1265
223,PSE-176,Test,none,Colour_Picture,glass,Old,no,0,1007
224,PSE-176,Test,none,Colour_Picture,bottle,Old,yes,1,1323
91,PSE-176,Test,none,Colour_Word,apple,New,no,1,1370
97,PSE-176,Test,none,Colour_Word,penguin,New,no,1,2064
101,PSE-176,Test,none,Colour_Word,bus,New,no,1,1558
118,PSE-176,Test,none,Colour_Word,vase,New,no,1,2400
122,PSE-176,Test,none,Colour_Word,house,New,no,1,1590
133,PSE-176,Test,none,Colour_Word,banana,New,yes,0,2398
144,PSE-176,Test,none,Colour_Word,truck,New,yes,0,2468
160,PSE-176,Test,none,Colour_Word,pitcher,New,no,1,1686
161,PSE-176,Test,none,Colour_Word,leopard,New,no,1,1842
163,PSE-176,Test,none,Colour_Word,window,New,yes,0,3978
164,PSE-176,Test,none,Colour_Word,balloon,New,no,1,1941
169,PSE-176,Test,none,Colour_Word,ear,New,no,1,4135
171,PSE-176,Test,none,Colour_Word,duck,New,no,1,4121
172,PSE-176,Test,none,Colour_Word,sun,New,no,1,1718
184,PSE-176,Test,none,Colour_Word,tie,New,no,1,1754
185,PSE-176,Test,none,Colour_Word,trumpet,New,yes,0,1777
187,PSE-176,Test,none,Colour_Word,candle,New,yes,0,1233
200,PSE-176,Test,none,Colour_Word,ball,New,no,1,2288
228,PSE-176,Test,none,Colour_Word,envelope,New,no,1,1371
232,PSE-176,Test,none,Colour_Word,pear,New,no,1,3352
87,PSE-176,Test,none,Colour_Word,onion,Old,yes,1,1217
90,PSE-176,Test,none,Colour_Word,dress,Old,yes,1,1376
92,PSE-176,Test,none,Colour_Word,brush,Old,yes,1,1136
107,PSE-176,Test,none,Colour_Word,cannon,Old,yes,1,1049
108,PSE-176,Test,none,Colour_Word,bed,Old,yes,1,944
116,PSE-176,Test,none,Colour_Word,sock,Old,yes,1,971
132,PSE-176,Test,none,Colour_Word,ruler,Old,yes,1,1078
138,PSE-176,Test,none,Colour_Word,bread,Old,yes,1,999
142,PSE-176,Test,none,Colour_Word,owl,Old,yes,1,6099
147,PSE-176,Test,none,Colour_Word,foot,Old,yes,1,1543
153,PSE-176,Test,none,Colour_Word,axe,Old,yes,1,1008
176,PSE-176,Test,none,Colour_Word,strawberry,Old,yes,1,1590
177,PSE-176,Test,none,Colour_Word,saw,Old,yes,1,1025
183,PSE-176,Test,none,Colour_Word,bow,Old,yes,1,1423
196,PSE-176,Test,none,Colour_Word,television,Old,yes,1,2976
199,PSE-176,Test,none,Colour_Word,chicken,Old,yes,1,1161
203,PSE-176,Test,none,Colour_Word,deer,Old,no,0,2512
229,PSE-176,Test,none,Colour_Word,bear,Old,no,0,1457
230,PSE-176,Test,none,Colour_Word,sweater,Old,no,0,1535
238,PSE-176,Test,none,Colour_Word,pumpkin,Old,no,0,3284
3,PSE-177,Study,fish,BW_Picture,none,none,none,-1,-1
7,PSE-177,Study,button,BW_Picture,none,none,none,-1,-1
9,PSE-177,Study,flower,BW_Picture,none,none,none,-1,-1
13,PSE-177,Study,dress,BW_Picture,none,none,none,-1,-1
15,PSE-177,Study,bear,BW_Picture,none,none,none,-1,-1
20,PSE-177,Study,dresser,BW_Picture,none,none,none,-1,-1
21,PSE-177,Study,heart,BW_Picture,none,none,none,-1,-1
23,PSE-177,Study,shoe,BW_Picture,none,none,none,-1,-1
29,PSE-177,Study,candle,BW_Picture,none,none,none,-1,-1
42,PSE-177,Study,lips,BW_Picture,none,none,none,-1,-1
44,PSE-177,Study,peanut,BW_Picture,none,none,none,-1,-1
45,PSE-177,Study,trumpet,BW_Picture,none,none,none,-1,-1
46,PSE-177,Study,ball,BW_Picture,none,none,none,-1,-1
49,PSE-177,Study,penguin,BW_Picture,none,none,none,-1,-1
51,PSE-177,Study,door,BW_Picture,none,none,none,-1,-1
57,PSE-177,Study,lemon,BW_Picture,none,none,none,-1,-1
60,PSE-177,Study,motorcycle,BW_Picture,none,none,none,-1,-1
66,PSE-177,Study,basket,BW_Picture,none,none,none,-1,-1
72,PSE-177,Study,cherry,BW_Picture,none,none,none,-1,-1
74,PSE-177,Study,star,BW_Picture,none,none,none,-1,-1
1,PSE-177,Study,frog,BW_Word,none,none,none,-1,-1
4,PSE-177,Study,violin,BW_Word,none,none,none,-1,-1
5,PSE-177,Study,glass,BW_Word,none,none,none,-1,-1
6,PSE-177,Study,peacock,BW_Word,none,none,none,-1,-1
8,PSE-177,Study,fox,BW_Word,none,none,none,-1,-1
10,PSE-177,Study,truck,BW_Word,none,none,none,-1,-1
12,PSE-177,Study,drum,BW_Word,none,none,none,-1,-1
14,PSE-177,Study,wagon,BW_Word,none,none,none,-1,-1
25,PSE-177,Study,leopard,BW_Word,none,none,none,-1,-1
26,PSE-177,Study,cake,BW_Word,none,none,none,-1,-1
32,PSE-177,Study,pepper,BW_Word,none,none,none,-1,-1
37,PSE-177,Study,pumpkin,BW_Word,none,none,none,-1,-1
38,PSE-177,Study,bowl,BW_Word,none,none,none,-1,-1
43,PSE-177,Study,umbrella,BW_Word,none,none,none,-1,-1
55,PSE-177,Study,onion,BW_Word,none,none,none,-1,-1
61,PSE-177,Study,lettuce,BW_Word,none,none,none,-1,-1
67,PSE-177,Study,brush,BW_Word,none,none,none,-1,-1
76,PSE-177,Study,tortoise,BW_Word,none,none,none,-1,-1
78,PSE-177,Study,bus,BW_Word,none,none,none,-1,-1
79,PSE-177,Study,balloon,BW_Word,none,none,none,-1,-1
17,PSE-177,Study,house,Colour_Picture,none,none,none,-1,-1
18,PSE-177,Study,foot,Colour_Picture,none,none,none,-1,-1
28,PSE-177,Study,mitten,Colour_Picture,none,none,none,-1,-1
31,PSE-177,Study,hand,Colour_Picture,none,none,none,-1,-1
33,PSE-177,Study,kite,Colour_Picture,none,none,none,-1,-1
35,PSE-177,Study,vase,Colour_Picture,none,none,none,-1,-1
36,PSE-177,Study,lamp,Colour_Picture,none,none,none,-1,-1
47,PSE-177,Study,barn,Colour_Picture,none,none,none,-1,-1
50,PSE-177,Study,watermelon,Colour_Picture,none,none,none,-1,-1
56,PSE-177,Study,suitcase,Colour_Picture,none,none,none,-1,-1
58,PSE-177,Study,grapes,Colour_Picture,none,none,none,-1,-1
62,PSE-177,Study,lock,Colour_Picture,none,none,none,-1,-1
63,PSE-177,Study,saw,Colour_Picture,none,none,none,-1,-1
64,PSE-177,Study,church,Colour_Picture,none,none,none,-1,-1
69,PSE-177,Study,apple,Colour_Picture,none,none,none,-1,-1
71,PSE-177,Study,envelope,Colour_Picture,none,none,none,-1,-1
73,PSE-177,Study,kangaroo,Colour_Picture,none,none,none,-1,-1
75,PSE-177,Study,snake,Colour_Picture,none,none,none,-1,-1
77,PSE-177,Study,table,Colour_Picture,none,none,none,-1,-1
80,PSE-177,Study,grasshopper,Colour_Picture,none,none,none,-1,-1
2,PSE-177,Study,chisel,Colour_Word,none,none,none,-1,-1
11,PSE-177,Study,stove,Colour_Word,none,none,none,-1,-1
16,PSE-177,Study,couch,Colour_Word,none,none,none,-1,-1
19,PSE-177,Study,tiger,Colour_Word,none,none,none,-1,-1
22,PSE-177,Study,potato,Colour_Word,none,none,none,-1,-1
24,PSE-177,Study,butterfly,Colour_Word,none,none,none,-1,-1
27,PSE-177,Study,cap,Colour_Word,none,none,none,-1,-1
30,PSE-177,Study,stool,Colour_Word,none,none,none,-1,-1
34,PSE-177,Study,caterpillar,Colour_Word,none,none,none,-1,-1
39,PSE-177,Study,bird,Colour_Word,none,none,none,-1,-1
40,PSE-177,Study,snail,Colour_Word,none,none,none,-1,-1
41,PSE-177,Study,squirrel,Colour_Word,none,none,none,-1,-1
48,PSE-177,Study,well,Colour_Word,none,none,none,-1,-1
52,PSE-177,Study,refrigerator,Colour_Word,none,none,none,-1,-1
53,PSE-177,Study,crown,Colour_Word,none,none,none,-1,-1
54,PSE-177,Study,carrot,Colour_Word,none,none,none,-1,-1
59,PSE-177,Study,pitcher,Colour_Word,none,none,none,-1,-1
65,PSE-177,Study,strawberry,Colour_Word,none,none,none,-1,-1
68,PSE-177,Study,celery,Colour_Word,none,none,none,-1,-1
70,PSE-177,Study,banana,Colour_Word,none,none,none,-1,-1
89,PSE-177,Test,none,BW_Picture,pencil,New,no,1,2479
92,PSE-177,Test,none,BW_Picture,ring,New,no,1,2028
99,PSE-177,Test,none,BW_Picture,sock,New,no,1,1803
111,PSE-177,Test,none,BW_Picture,iron,New,no,1,1194
121,PSE-177,Test,none,BW_Picture,leaf,New,no,1,1854
129,PSE-177,Test,none,BW_Picture,salt,New,no,1,1897
132,PSE-177,Test,none,BW_Picture,clock,New,no,1,1827
147,PSE-177,Test,none,BW_Picture,car,New,no,1,3155
150,PSE-177,Test,none,BW_Picture,shirt,New,no,1,1136
169,PSE-177,Test,none,BW_Picture,mountain,New,no,1,1751
178,PSE-177,Test,none,BW_Picture,duck,New,no,1,1594
189,PSE-177,Test,none,BW_Picture,horse,New,no,1,1150
192,PSE-177,Test,none,BW_Picture,barrel,New,no,1,1781
200,PSE-177,Test,none,BW_Picture,spool,New,no,1,1148
206,PSE-177,Test,none,BW_Picture,train,New,no,1,1760
211,PSE-177,Test,none,BW_Picture,cannon,New,no,1,1673
215,PSE-177,Test,none,BW_Picture,harp,New,no,1,1566
222,PSE-177,Test,none,BW_Picture,rabbit,New,no,1,997
223,PSE-177,Test,none,BW_Picture,tomato,New,no,1,875
237,PSE-177,Test,none,BW_Picture,screwdriver,New,no,1,1135
85,PSE-177,Test,none,BW_Picture,cherry,Old,yes,1,1961
86,PSE-177,Test,none,BW_Picture,peanut,Old,yes,1,891
87,PSE-177,Test,none,BW_Picture,basket,Old,yes,1,936
93,PSE-177,Test,none,BW_Picture,bear,Old,yes,1,848
101,PSE-177,Test,none,BW_Picture,dresser,Old,yes,1,865
105,PSE-177,Test,none,BW_Picture,motorcycle,Old,no,0,1136
107,PSE-177,Test,none,BW_Picture,ball,Old,yes,1,1257
117,PSE-177,Test,none,BW_Picture,heart,Old,no,0,2160
128,PSE-177,Test,none,BW_Picture,button,Old,yes,1,1999
133,PSE-177,Test,none,BW_Picture,fish,Old,yes,1,830
