Trial,Subject,Phase,Stimulus,Stimulus Type,Probe,Probe Type,Response,Accuracy,RT
2,PSE-129,Study,owl,BW_Picture,none,none,none,-1,-1
5,PSE-129,Study,shoe,BW_Picture,none,none,none,-1,-1
6,PSE-129,Study,purse,BW_Picture,none,none,none,-1,-1
21,PSE-129,Study,horse,BW_Picture,none,none,none,-1,-1
23,PSE-129,Study,corn,BW_Picture,none,none,none,-1,-1
27,PSE-129,Study,basket,BW_Picture,none,none,none,-1,-1
29,PSE-129,Study,axe,BW_Picture,none,none,none,-1,-1
31,PSE-129,Study,bed,BW_Picture,none,none,none,-1,-1
34,PSE-129,Study,mountain,BW_Picture,none,none,none,-1,-1
39,PSE-129,Study,paintbrush,BW_Picture,none,none,none,-1,-1
3,PSE-129,Study,violin,BW_Word,none,none,none,-1,-1
11,PSE-129,Study,couch,BW_Word,none,none,none,-1,-1
12,PSE-129,Study,chicken,BW_Word,none,none,none,-1,-1
14,PSE-129,Study,balloon,BW_Word,none,none,none,-1,-1
16,PSE-129,Study,belt,BW_Word,none,none,none,-1,-1
19,PSE-129,Study,motorcycle,BW_Word,none,none,none,-1,-1
20,PSE-129,Study,pineapple,BW_Word,none,none,none,-1,-1
25,PSE-129,Study,iron,BW_Word,none,none,none,-1,-1
28,PSE-129,Study,pitcher,BW_Word,none,none,none,-1,-1
38,PSE-129,Study,lightbulb,BW_Word,none,none,none,-1,-1
4,PSE-129,Study,bat,Colour_Picture,none,none,none,-1,-1
9,PSE-129,Study,tortoise,Colour_Picture,none,none,none,-1,-1
15,PSE-129,Study,grapes,Colour_Picture,none,none,none,-1,-1
17,PSE-129,Study,potato,Colour_Picture,none,none,none,-1,-1
22,PSE-129,Study,kangaroo,Colour_Picture,none,none,none,-1,-1
24,PSE-129,Study,penguin,Colour_Picture,none,none,none,-1,-1
26,PSE-129,Study,pepper,Colour_Picture,none,none,none,-1,-1
32,PSE-129,Study,spool,Colour_Picture,none,none,none,-1,-1
35,PSE-129,Study,sweater,Colour_Picture,none,none,none,-1,-1
36,PSE-129,Study,bowl,Colour_Picture,none,none,none,-1,-1
1,PSE-129,Study,rooster,Colour_Word,none,none,none,-1,-1
7,PSE-129,Study,fish,Colour_Word,none,none,none,-1,-1
8,PSE-129,Study,boot,Colour_Word,none,none,none,-1,-1
10,PSE-129,Study,deer,Colour_Word,none,none,none,-1,-1
13,PSE-129,Study,butterfly,Colour_Word,none,none,none,-1,-1
18,PSE-129,Study,camel,Colour_Word,none,none,none,-1,-1
30,PSE-129,Study,tie,Colour_Word,none,none,none,-1,-1
33,PSE-129,Study,trumpet,Colour_Word,none,none,none,-1,-1
37,PSE-129,Study,clock,Colour_Word,none,none,none,-1,-1
40,PSE-129,Study,crown,Colour_Word,none,none,none,-1,-1
59,PSE-129,Test,none,BW_Picture,thimble,New,no,1,1587
63,PSE-129,Test,none,BW_Picture,dog,New,no,1,1259
77,PSE-129,Test,none,BW_Picture,frog,New,no,1,1077
80,PSE-129,Test,none,BW_Picture,box,New,no,1,876
81,PSE-129,Test,none,BW_Picture,truck,New,no,1,795
106,PSE-129,Test,none,BW_Picture,carrot,New,no,1,966
108,PSE-129,Test,none,BW_Picture,sandwich,New,no,1,1408
115,PSE-129,Test,none,BW_Picture,cow,New,no,1,942
117,PSE-129,Test,none,BW_Picture,pear,New,no,1,1477
120,PSE-129,Test,none,BW_Picture,cake,New,no,1,1513
42,PSE-129,Test,none,BW_Picture,owl,Old,yes,1,1334
52,PSE-129,Test,none,BW_Picture,shoe,Old,yes,1,719
53,PSE-129,Test,none,BW_Picture,horse,Old,yes,1,1145
60,PSE-129,Test,none,BW_Picture,corn,Old,yes,1,777
66,PSE-129,Test,none,BW_Picture,basket,Old,yes,1,946
69,PSE-129,Test,none,BW_Picture,axe,Old,yes,1,768
89,PSE-129,Test,none,BW_Picture,purse,Old,yes,1,909
98,PSE-129,Test,none,BW_Picture,bed,Old,yes,1,749
102,PSE-129,Test,none,BW_Picture,paintbrush,Old,yes,1,827
109,PSE-129,Test,none,BW_Picture,mountain,Old,yes,1,787
46,PSE-129,Test,none,BW_Word,tree,New,no,1,962
68,PSE-129,Test,none,BW_Word,sailboat,New,no,1,965
70,PSE-129,Test,none,BW_Word,shirt,New,no,1,877
74,PSE-129,Test,none,BW_Word,tomato,New,no,1,874
76,PSE-129,Test,none,BW_Word,asparagus,New,no,1,793
78,PSE-129,Test,none,BW_Word,vase,New,no,1,857
82,PSE-129,Test,none,BW_Word,sled,New,no,1,855
87,PSE-129,Test,none,BW_Word,heart,New,no,1,873
92,PSE-129,Test,none,BW_Word,television,New,no,1,930
95,PSE-129,Test,none,BW_Word,ruler,New,no,1,992
41,PSE-129,Test,none,BW_Word,balloon,Old,yes,1,1575
43,PSE-129,Test,none,BW_Word,violin,Old,yes,1,920
45,PSE-129,Test,none,BW_Word,belt,Old,yes,1,1111
48,PSE-129,Test,none,BW_Word,couch,Old,no,0,1254
65,PSE-129,Test,none,BW_Word,chicken,Old,no,0,943
83,PSE-129,Test,none,BW_Word,pineapple,Old,yes,1,1171
84,PSE-129,Test,none,BW_Word,motorcycle,Old,no,0,1016
86,PSE-129,Test,none,BW_Word,iron,Old,yes,1,880
90,PSE-129,Test,none,BW_Word,pitcher,Old,yes,1,782
110,PSE-129,Test,none,BW_Word,lightbulb,Old,yes,1,914
55,PSE-129,Test,none,Colour_Picture,lips,New,no,1,1816
62,PSE-129,Test,none,Colour_Picture,bird,New,no,1,1670
67,PSE-129,Test,none,Colour_Picture,tiger,New,no,1,1851
75,PSE-129,Test,none,Colour_Picture,glass,New,no,1,968
85,PSE-129,Test,none,Colour_Picture,leaf,New,no,1,875
101,PSE-129,Test,none,Colour_Picture,bicycle,New,no,1,1750
105,PSE-129,Test,none,Colour_Picture,artichoke,New,no,1,883
113,PSE-129,Test,none,Colour_Picture,squirrel,New,no,1,971
114,PSE-129,Test,none,Colour_Picture,foot,New,no,1,1324
116,PSE-129,Test,none,Colour_Picture,train,New,no,1,824
56,PSE-129,Test,none,Colour_Picture,bat,Old,yes,1,825
57,PSE-129,Test,none,Colour_Picture,pepper,Old,yes,1,700
58,PSE-129,Test,none,Colour_Picture,kangaroo,Old,yes,1,1095
61,PSE-129,Test,none,Colour_Picture,tortoise,Old,yes,1,1079
72,PSE-129,Test,none,Colour_Picture,spool,Old,yes,1,840
79,PSE-129,Test,none,Colour_Picture,penguin,Old,yes,1,809
96,PSE-129,Test,none,Colour_Picture,grapes,Old,yes,1,773
97,PSE-129,Test,none,Colour_Picture,potato,Old,yes,1,1730
107,PSE-129,Test,none,Colour_Picture,sweater,Old,yes,1,862
119,PSE-129,Test,none,Colour_Picture,bowl,Old,yes,1,813
44,PSE-129,Test,none,Colour_Word,bread,New,no,1,2286
47,PSE-129,Test,none,Colour_Word,dresser,New,no,1,1185
50,PSE-129,Test,none,Colour_Word,star,New,no,1,1453
54,PSE-129,Test,none,Colour_Word,helicopter,New,no,1,1965
71,PSE-129,Test,none,Colour_Word,peacock,New,no,1,1177
91,PSE-129,Test,none,Colour_Word,pumpkin,New,no,1,2298
93,PSE-129,Test,none,Colour_Word,refrigerator,New,no,1,863
99,PSE-129,Test,none,Colour_Word,sock,New,no,1,1594
104,PSE-129,Test,none,Colour_Word,duck,New,no,1,2431
112,PSE-129,Test,none,Colour_Word,goat,New,no,1,1781
49,PSE-129,Test,none,Colour_Word,fish,Old,yes,1,961
51,PSE-129,Test,none,Colour_Word,boot,Old,yes,1,917
64,PSE-129,Test,none,Colour_Word,rooster,Old,yes,1,842
73,PSE-129,Test,none,Colour_Word,deer,Old,yes,1,832
88,PSE-129,Test,none,Colour_Word,camel,Old,no,0,773
94,PSE-129,Test,none,Colour_Word,butterfly,Old,yes,1,879
100,PSE-129,Test,none,Colour_Word,trumpet,Old,yes,1,777
103,PSE-129,Test,none,Colour_Word,tie,Old,yes,1,865
111,PSE-129,Test,none,Colour_Word,clock,Old,yes,1,1043
118,PSE-129,Test,none,Colour_Word,crown,Old,yes,1,1180
1,PSE-130,Study,kite,BW_Picture,none,none,none,-1,-1
3,PSE-130,Study,tiger,BW_Picture,none,none,none,-1,-1
6,PSE-130,Study,box,BW_Picture,none,none,none,-1,-1
10,PSE-130,Study,train,BW_Picture,none,none,none,-1,-1
15,PSE-130,Study,glove,BW_Picture,none,none,none,-1,-1
21,PSE-130,Study,owl,BW_Picture,none,none,none,-1,-1
24,PSE-130,Study,cap,BW_Picture,none,none,none,-1,-1
31,PSE-130,Study,corn,BW_Picture,none,none,none,-1,-1
38,PSE-130,Study,lightbulb,BW_Picture,none,none,none,-1,-1
39,PSE-130,Study,giraffe,BW_Picture,none,none,none,-1,-1
2,PSE-130,Study,trumpet,BW_Word,none,none,none,-1,-1
12,PSE-130,Study,clown,BW_Word,none,none,none,-1,-1
14,PSE-130,Study,cake,BW_Word,none,none,none,-1,-1
17,PSE-130,Study,snake,BW_Word,none,none,none,-1,-1
19,PSE-130,Study,chair,BW_Word,none,none,none,-1,-1
22,PSE-130,Study,table,BW_Word,none,none,none,-1,-1
25,PSE-130,Study,truck,BW_Word,none,none,none,-1,-1
26,PSE-130,Study,pitcher,BW_Word,none,none,none,-1,-1
36,PSE-130,Study,church,BW_Word,none,none,none,-1,-1
37,PSE-130,Study,rabbit,BW_Word,none,none,none,-1,-1
4,PSE-130,Study,monkey,Colour_Picture,none,none,none,-1,-1
7,PSE-130,Study,dress,Colour_Picture,none,none,none,-1,-1
8,PSE-130,Study,eagle,Colour_Picture,none,none,none,-1,-1
11,PSE-130,Study,flower,Colour_Picture,none,none,none,-1,-1
16,PSE-130,Study,desk,Colour_Picture,none,none,none,-1,-1
18,PSE-130,Study,shirt,Colour_Picture,none,none,none,-1,-1
20,PSE-130,Study,stove,Colour_Picture,none,none,none,-1,-1
27,PSE-130,Study,bus,Colour_Picture,none,none,none,-1,-1
33,PSE-130,Study,doll,Colour_Picture,none,none,none,-1,-1
40,PSE-130,Study,bear,Colour_Picture,none,none,none,-1,-1
5,PSE-130,Study,refrigerator,Colour_Word,none,none,none,-1,-1
9,PSE-130,Study,balloon,Colour_Word,none,none,none,-1,-1
13,PSE-130,Study,cherry,Colour_Word,none,none,none,-1,-1
23,PSE-130,Study,heart,Colour_Word,none,none,none,-1,-1
28,PSE-130,Study,purse,Colour_Word,none,none,none,-1,-1
29,PSE-130,Study,bat,Colour_Word,none,none,none,-1,-1
30,PSE-130,Study,carrot,Colour_Word,none,none,none,-1,-1
32,PSE-130,Study,horse,Colour_Word,none,none,none,-1,-1
34,PSE-130,Study,basket,Colour_Word,none,none,none,-1,-1
35,PSE-130,Study,stool,Colour_Word,none,none,none,-1,-1
59,PSE-130,Test,none,BW_Picture,pencil,New,no,1,3243
66,PSE-130,Test,none,BW_Picture,vase,New,no,1,4030
67,PSE-130,Test,none,BW_Picture,barn,New,no,1,2996
73,PSE-130,Test,none,BW_Picture,dog,New,no,1,3412
78,PSE-130,Test,none,BW_Picture,bread,New,no,1,3524
94,PSE-130,Test,none,BW_Picture,car,New,no,1,3722
99,PSE-130,Test,none,BW_Picture,snail,New,no,1,3346
100,PSE-130,Test,none,BW_Picture,nose,New,no,1,2196
101,PSE-130,Test,none,BW_Picture,finger,New,no,1,2818
111,PSE-130,Test,none,BW_Picture,ear,New,no,1,10295
55,PSE-130,Test,none,BW_Picture,train,Old,no,0,16783
58,PSE-130,Test,none,BW_Picture,box,Old,yes,1,1692
64,PSE-130,Test,none,BW_Picture,owl,Old,yes,1,1617
71,PSE-130,Test,none,BW_Picture,tiger,Old,yes,1,1621
79,PSE-130,Test,none,BW_Picture,kite,Old,yes,1,1563
81,PSE-130,Test,none,BW_Picture,corn,Old,yes,1,1531
90,PSE-130,Test,none,BW_Picture,cap,Old,yes,1,1908
102,PSE-130,Test,none,BW_Picture,glove,Old,yes,1,3640
118,PSE-130,Test,none,BW_Picture,lightbulb,Old,yes,1,1719
119,PSE-130,Test,none,BW_Picture,giraffe,Old,yes,1,1590
42,PSE-130,Test,none,BW_Word,squirrel,New,no,1,3845
44,PSE-130,Test,none,BW_Word,bed,New,no,1,3573
53,PSE-130,Test,none,BW_Word,mitten,New,no,1,4604
62,PSE-130,Test,none,BW_Word,candle,New,yes,0,2672
82,PSE-130,Test,none,BW_Word,well,New,no,1,3265
86,PSE-130,Test,none,BW_Word,pear,New,no,1,2726
92,PSE-130,Test,none,BW_Word,guitar,New,no,1,1665
108,PSE-130,Test,none,BW_Word,clock,New,no,1,3416
110,PSE-130,Test,none,BW_Word,button,New,no,1,2500
113,PSE-130,Test,none,BW_Word,sailboat,New,no,1,3576
43,PSE-130,Test,none,BW_Word,cake,Old,yes,1,3153
45,PSE-130,Test,none,BW_Word,snake,Old,yes,1,1861
65,PSE-130,Test,none,BW_Word,clown,Old,yes,1,1766
75,PSE-130,Test,none,BW_Word,table,Old,yes,1,2259
80,PSE-130,Test,none,BW_Word,trumpet,Old,yes,1,1525
93,PSE-130,Test,none,BW_Word,pitcher,Old,no,0,2271
107,PSE-130,Test,none,BW_Word,chair,Old,yes,1,2079
112,PSE-130,Test,none,BW_Word,truck,Old,no,0,2514
116,PSE-130,Test,none,BW_Word,church,Old,no,0,2014
120,PSE-130,Test,none,BW_Word,rabbit,Old,no,0,2554
47,PSE-130,Test,none,Colour_Picture,sandwich,New,no,1,4551
56,PSE-130,Test,none,Colour_Picture,belt,New,no,1,4357
68,PSE-130,Test,none,Colour_Picture,harp,New,no,1,2669
70,PSE-130,Test,none,Colour_Picture,house,New,no,1,4294
74,PSE-130,Test,none,Colour_Picture,dresser,New,no,1,16026
85,PSE-130,Test,none,Colour_Picture,celery,New,no,1,4750
91,PSE-130,Test,none,Colour_Picture,glass,New,no,1,3798
104,PSE-130,Test,none,Colour_Picture,sweater,New,no,1,3891
105,PSE-130,Test,none,Colour_Picture,pepper,New,no,1,2515
115,PSE-130,Test,none,Colour_Picture,goat,New,no,1,3315
41,PSE-130,Test,none,Colour_Picture,desk,Old,yes,1,2387
60,PSE-130,Test,none,Colour_Picture,dress,Old,yes,1,1943
63,PSE-130,Test,none,Colour_Picture,monkey,Old,yes,1,1555
69,PSE-130,Test,none,Colour_Picture,eagle,Old,yes,1,1882
76,PSE-130,Test,none,Colour_Picture,flower,Old,yes,1,1555
84,PSE-130,Test,none,Colour_Picture,shirt,Old,yes,1,1957
97,PSE-130,Test,none,Colour_Picture,stove,Old,yes,1,1739
98,PSE-130,Test,none,Colour_Picture,bus,Old,yes,1,1487
103,PSE-130,Test,none,Colour_Picture,doll,Old,yes,1,1411
114,PSE-130,Test,none,Colour_Picture,bear,Old,yes,1,1505
50,PSE-130,Test,none,Colour_Word,tomato,New,no,1,4419
51,PSE-130,Test,none,Colour_Word,boot,New,no,1,3022
54,PSE-130,Test,none,Colour_Word,axe,New,no,1,4376
57,PSE-130,Test,none,Colour_Word,alligator,New,no,1,10290
61,PSE-130,Test,none,Colour_Word,fox,New,no,1,4079
88,PSE-130,Test,none,Colour_Word,helicopter,New,no,1,4032
89,PSE-130,Test,none,Colour_Word,bell,New,no,1,2216
95,PSE-130,Test,none,Colour_Word,lemon,New,no,1,2096
96,PSE-130,Test,none,Colour_Word,tortoise,New,no,1,2644
117,PSE-130,Test,none,Colour_Word,penguin,New,no,1,3889
46,PSE-130,Test,none,Colour_Word,balloon,Old,yes,1,2908
48,PSE-130,Test,none,Colour_Word,purse,Old,yes,1,2201
49,PSE-130,Test,none,Colour_Word,heart,Old,yes,1,1487
52,PSE-130,Test,none,Colour_Word,refrigerator,Old,yes,1,1918
72,PSE-130,Test,none,Colour_Word,carrot,Old,yes,1,1644
77,PSE-130,Test,none,Colour_Word,cherry,Old,yes,1,1426
83,PSE-130,Test,none,Colour_Word,basket,Old,yes,1,1873
87,PSE-130,Test,none,Colour_Word,stool,Old,yes,1,1396
106,PSE-130,Test,none,Colour_Word,bat,Old,yes,1,1944
109,PSE-130,Test,none,Colour_Word,horse,Old,yes,1,1519
3,PSE-131,Study,banana,BW_Picture,none,none,none,-1,-1
9,PSE-131,Study,pepper,BW_Picture,none,none,none,-1,-1
13,PSE-131,Study,racoon,BW_Picture,none,none,none,-1,-1
20,PSE-131,Study,toothbrush,BW_Picture,none,none,none,-1,-1
22,PSE-131,Study,harp,BW_Picture,none,none,none,-1,-1
27,PSE-131,Study,butterfly,BW_Picture,none,none,none,-1,-1
30,PSE-131,Study,pig,BW_Picture,none,none,none,-1,-1
31,PSE-131,Study,artichoke,BW_Picture,none,none,none,-1,-1
33,PSE-131,Study,lightbulb,BW_Picture,none,none,none,-1,-1
36,PSE-131,Study,clock,BW_Picture,none,none,none,-1,-1
6,PSE-131,Study,doll,BW_Word,none,none,none,-1,-1
7,PSE-131,Study,rooster,BW_Word,none,none,none,-1,-1
8,PSE-131,Study,dress,BW_Word,none,none,none,-1,-1
14,PSE-131,Study,snail,BW_Word,none,none,none,-1,-1
18,PSE-131,Study,barn,BW_Word,none,none,none,-1,-1
34,PSE-131,Study,glove,BW_Word,none,none,none,-1,-1
35,PSE-131,Study,pear,BW_Word,none,none,none,-1,-1
37,PSE-131,Study,dresser,BW_Word,none,none,none,-1,-1
38,PSE-131,Study,monkey,BW_Word,none,none,none,-1,-1
39,PSE-131,Study,window,BW_Word,none,none,none,-1,-1
1,PSE-131,Study,violin,Colour_Picture,none,none,none,-1,-1
2,PSE-131,Study,owl,Colour_Picture,none,none,none,-1,-1
4,PSE-131,Study,car,Colour_Picture,none,none,none,-1,-1
5,PSE-131,Study,star,Colour_Picture,none,none,none,-1,-1
12,PSE-131,Study,screwdriver,Colour_Picture,none,none,none,-1,-1
15,PSE-131,Study,sandwich,Colour_Picture,none,none,none,-1,-1
17,PSE-131,Study,thimble,Colour_Picture,none,none,none,-1,-1
21,PSE-131,Study,rabbit,Colour_Picture,none,none,none,-1,-1
28,PSE-131,Study,pumpkin,Colour_Picture,none,none,none,-1,-1
29,PSE-131,Study,penguin,Colour_Picture,none,none,none,-1,-1
10,PSE-131,Study,flag,Colour_Word,none,none,none,-1,-1
11,PSE-131,Study,nose,Colour_Word,none,none,none,-1,-1
16,PSE-131,Study,duck,Colour_Word,none,none,none,-1,-1
19,PSE-131,Study,motorcycle,Colour_Word,none,none,none,-1,-1
23,PSE-131,Study,refrigerator,Colour_Word,none,none,none,-1,-1
24,PSE-131,Study,coat,Colour_Word,none,none,none,-1,-1
25,PSE-131,Study,paintbrush,Colour_Word,none,none,none,-1,-1
26,PSE-131,Study,pen,Colour_Word,none,none,none,-1,-1
32,PSE-131,Study,stool,Colour_Word,none,none,none,-1,-1
40,PSE-131,Study,peanut,Colour_Word,none,none,none,-1,-1
41,PSE-131,Test,none,BW_Picture,bird,New,no,1,2262
45,PSE-131,Test,none,BW_Picture,glass,New,no,1,1320
47,PSE-131,Test,none,BW_Picture,bat,New,no,1,1183
52,PSE-131,Test,none,BW_Picture,door,New,no,1,5484
66,PSE-131,Test,none,BW_Picture,salt,New,no,1,2997
67,PSE-131,Test,none,BW_Picture,potato,New,no,1,1647
71,PSE-131,Test,none,BW_Picture,button,New,no,1,1877
84,PSE-131,Test,none,BW_Picture,bear,New,yes,0,2610
87,PSE-131,Test,none,BW_Picture,stove,New,no,1,4016
117,PSE-131,Test,none,BW_Picture,suitcase,New,no,1,1576
49,PSE-131,Test,none,BW_Picture,racoon,Old,yes,1,1087
54,PSE-131,Test,none,BW_Picture,pepper,Old,yes,1,980
55,PSE-131,Test,none,BW_Picture,banana,Old,yes,1,958
58,PSE-131,Test,none,BW_Picture,harp,Old,yes,1,1057
77,PSE-131,Test,none,BW_Picture,toothbrush,Old,yes,1,1211
78,PSE-131,Test,none,BW_Picture,artichoke,Old,yes,1,929
89,PSE-131,Test,none,BW_Picture,butterfly,Old,yes,1,1428
94,PSE-131,Test,none,BW_Picture,lightbulb,Old,yes,1,1025
95,PSE-131,Test,none,BW_Picture,clock,Old,yes,1,1344
108,PSE-131,Test,none,BW_Picture,pig,Old,yes,1,844
70,PSE-131,Test,none,BW_Word,well,New,yes,0,3624
73,PSE-131,Test,none,BW_Word,sock,New,no,1,2130
74,PSE-131,Test,none,BW_Word,leopard,New,no,1,1691
79,PSE-131,Test,none,BW_Word,saw,New,no,1,2703
91,PSE-131,Test,none,BW_Word,goat,New,yes,0,1522
97,PSE-131,Test,none,BW_Word,book,New,yes,0,1746
98,PSE-131,Test,none,BW_Word,drum,New,yes,0,1618
105,PSE-131,Test,none,BW_Word,knife,New,no,1,3929
110,PSE-131,Test,none,BW_Word,tortoise,New,no,1,1458
111,PSE-131,Test,none,BW_Word,lamp,New,yes,0,1002
51,PSE-131,Test,none,BW_Word,pear,Old,yes,1,1241
53,PSE-131,Test,none,BW_Word,glove,Old,yes,1,1228
59,PSE-131,Test,none,BW_Word,barn,Old,yes,1,1165
82,PSE-131,Test,none,BW_Word,rooster,Old,yes,1,2609
83,PSE-131,Test,none,BW_Word,doll,Old,yes,1,1469
86,PSE-131,Test,none,BW_Word,window,Old,yes,1,1159
93,PSE-131,Test,none,BW_Word,dress,Old,yes,1,1066
102,PSE-131,Test,none,BW_Word,snail,Old,no,0,1437
103,PSE-131,Test,none,BW_Word,monkey,Old,no,0,2340
118,PSE-131,Test,none,BW_Word,dresser,Old,yes,1,1042
46,PSE-131,Test,none,Colour_Picture,kangaroo,New,no,1,1236
56,PSE-131,Test,none,Colour_Picture,bread,New,no,1,2586
61,PSE-131,Test,none,Colour_Picture,caterpillar,New,no,1,2171
64,PSE-131,Test,none,Colour_Picture,couch,New,no,1,2439
90,PSE-131,Test,none,Colour_Picture,watermelon,New,no,1,2981
92,PSE-131,Test,none,Colour_Picture,boot,New,no,1,2371
109,PSE-131,Test,none,Colour_Picture,flower,New,no,1,2269
112,PSE-131,Test,none,Colour_Picture,snake,New,no,1,1340
113,PSE-131,Test,none,Colour_Picture,mitten,New,no,1,2082
115,PSE-131,Test,none,Colour_Picture,church,New,no,1,1172
50,PSE-131,Test,none,Colour_Picture,violin,Old,yes,1,1020
60,PSE-131,Test,none,Colour_Picture,owl,Old,yes,1,925
75,PSE-131,Test,none,Colour_Picture,star,Old,yes,1,1453
80,PSE-131,Test,none,Colour_Picture,car,Old,yes,1,943
88,PSE-131,Test,none,Colour_Picture,screwdriver,Old,yes,1,858
96,PSE-131,Test,none,Colour_Picture,thimble,Old,yes,1,1056
99,PSE-131,Test,none,Colour_Picture,penguin,Old,yes,1,1165
100,PSE-131,Test,none,Colour_Picture,rabbit,Old,yes,1,965
104,PSE-131,Test,none,Colour_Picture,sandwich,Old,yes,1,850
107,PSE-131,Test,none,Colour_Picture,pumpkin,Old,yes,1,948
43,PSE-131,Test,none,Colour_Word,fox,New,no,1,2565
44,PSE-131,Test,none,Colour_Word,deer,New,no,1,2171
57,PSE-131,Test,none,Colour_Word,bow,New,no,1,1536
68,PSE-131,Test,none,Colour_Word,lettuce,New,no,1,1852
72,PSE-131,Test,none,Colour_Word,iron,New,no,1,1983
85,PSE-131,Test,none,Colour_Word,house,New,no,1,3342
101,PSE-131,Test,none,Colour_Word,lips,New,no,1,3063
114,PSE-131,Test,none,Colour_Word,ball,New,no,1,1499
116,PSE-131,Test,none,Colour_Word,shoe,New,no,1,2099
120,PSE-131,Test,none,Colour_Word,belt,New,yes,0,2128
42,PSE-131,Test,none,Colour_Word,flag,Old,yes,1,1237
48,PSE-131,Test,none,Colour_Word,duck,Old,yes,1,1512
62,PSE-131,Test,none,Colour_Word,nose,Old,yes,1,1220
63,PSE-131,Test,none,Colour_Word,refrigerator,Old,yes,1,1095
65,PSE-131,Test,none,Colour_Word,paintbrush,Old,yes,1,1428
69,PSE-131,Test,none,Colour_Word,motorcycle,Old,yes,1,1136
76,PSE-131,Test,none,Colour_Word,pen,Old,yes,1,1962
81,PSE-131,Test,none,Colour_Word,stool,Old,yes,1,1093
106,PSE-131,Test,none,Colour_Word,peanut,Old,yes,1,1042
119,PSE-131,Test,none,Colour_Word,coat,Old,yes,1,1490
5,PSE-132,Study,pineapple,BW_Picture,none,none,none,-1,-1
9,PSE-132,Study,saw,BW_Picture,none,none,none,-1,-1
10,PSE-132,Study,bow,BW_Picture,none,none,none,-1,-1
12,PSE-132,Study,umbrella,BW_Picture,none,none,none,-1,-1
14,PSE-132,Study,snake,BW_Picture,none,none,none,-1,-1
17,PSE-132,Study,racoon,BW_Picture,none,none,none,-1,-1
22,PSE-132,Study,pepper,BW_Picture,none,none,none,-1,-1
25,PSE-132,Study,cow,BW_Picture,none,none,none,-1,-1
37,PSE-132,Study,rooster,BW_Picture,none,none,none,-1,-1
38,PSE-132,Study,owl,BW_Picture,none,none,none,-1,-1
4,PSE-132,Study,ear,BW_Word,none,none,none,-1,-1
6,PSE-132,Study,lemon,BW_Word,none,none,none,-1,-1
8,PSE-132,Study,motorcycle,BW_Word,none,none,none,-1,-1
19,PSE-132,Study,stove,BW_Word,none,none,none,-1,-1
23,PSE-132,Study,tomato,BW_Word,none,none,none,-1,-1
28,PSE-132,Study,purse,BW_Word,none,none,none,-1,-1
33,PSE-132,Study,kangaroo,BW_Word,none,none,none,-1,-1
34,PSE-132,Study,wagon,BW_Word,none,none,none,-1,-1
36,PSE-132,Study,table,BW_Word,none,none,none,-1,-1
39,PSE-132,Study,pitcher,BW_Word,none,none,none,-1,-1
1,PSE-132,Study,lamp,Colour_Picture,none,none,none,-1,-1
11,PSE-132,Study,bat,Colour_Picture,none,none,none,-1,-1
16,PSE-132,Study,bell,Colour_Picture,none,none,none,-1,-1
18,PSE-132,Study,clock,Colour_Picture,none,none,none,-1,-1
21,PSE-132,Study,artichoke,Colour_Picture,none,none,none,-1,-1
24,PSE-132,Study,church,Colour_Picture,none,none,none,-1,-1
29,PSE-132,Study,toothbrush,Colour_Picture,none,none,none,-1,-1
30,PSE-132,Study,pen,Colour_Picture,none,none,none,-1,-1
31,PSE-132,Study,spool,Colour_Picture,none,none,none,-1,-1
35,PSE-132,Study,lettuce,Colour_Picture,none,none,none,-1,-1
2,PSE-132,Study,penguin,Colour_Word,none,none,none,-1,-1
3,PSE-132,Study,ball,Colour_Word,none,none,none,-1,-1
7,PSE-132,Study,dress,Colour_Word,none,none,none,-1,-1
13,PSE-132,Study,drum,Colour_Word,none,none,none,-1,-1
15,PSE-132,Study,chisel,Colour_Word,none,none,none,-1,-1
20,PSE-132,Study,harp,Colour_Word,none,none,none,-1,-1
26,PSE-132,Study,mountain,Colour_Word,none,none,none,-1,-1
27,PSE-132,Study,snail,Colour_Word,none,none,none,-1,-1
32,PSE-132,Study,sandwich,Colour_Word,none,none,none,-1,-1
40,PSE-132,Study,sun,Colour_Word,none,none,none,-1,-1
43,PSE-132,Test,none,BW_Picture,kettle,New,no,1,1168
45,PSE-132,Test,none,BW_Picture,couch,New,no,1,1008
48,PSE-132,Test,none,BW_Picture,coat,New,no,1,969
49,PSE-132,Test,none,BW_Picture,apple,New,no,1,1264
65,PSE-132,Test,none,BW_Picture,peacock,New,no,1,1616
73,PSE-132,Test,none,BW_Picture,helicopter,New,no,1,959
86,PSE-132,Test,none,BW_Picture,watch,New,no,1,1120
100,PSE-132,Test,none,BW_Picture,nose,New,no,1,1897
113,PSE-132,Test,none,BW_Picture,sweater,New,no,1,2144
114,PSE-132,Test,none,BW_Picture,lock,New,no,1,1687
47,PSE-132,Test,none,BW_Picture,pineapple,Old,yes,1,784
58,PSE-132,Test,none,BW_Picture,saw,Old,yes,1,744
67,PSE-132,Test,none,BW_Picture,bow,Old,yes,1,776
72,PSE-132,Test,none,BW_Picture,umbrella,Old,yes,1,681
80,PSE-132,Test,none,BW_Picture,cow,Old,yes,1,1408
97,PSE-132,Test,none,BW_Picture,pepper,Old,yes,1,608
98,PSE-132,Test,none,BW_Picture,snake,Old,yes,1,656
101,PSE-132,Test,none,BW_Picture,rooster,Old,yes,1,663
104,PSE-132,Test,none,BW_Picture,racoon,Old,yes,1,632
105,PSE-132,Test,none,BW_Picture,owl,Old,yes,1,959
56,PSE-132,Test,none,BW_Word,banana,New,no,1,848
69,PSE-132,Test,none,BW_Word,pear,New,no,1,1943
74,PSE-132,Test,none,BW_Word,star,New,no,1,1104
76,PSE-132,Test,none,BW_Word,guitar,New,no,1,1000
82,PSE-132,Test,none,BW_Word,kite,New,no,1,1649
84,PSE-132,Test,none,BW_Word,bread,New,no,1,1344
103,PSE-132,Test,none,BW_Word,stool,New,no,1,1025
107,PSE-132,Test,none,BW_Word,pencil,New,yes,0,936
108,PSE-132,Test,none,BW_Word,sailboat,New,no,1,888
120,PSE-132,Test,none,BW_Word,window,New,no,1,1088
52,PSE-132,Test,none,BW_Word,motorcycle,Old,yes,1,1192
59,PSE-132,Test,none,BW_Word,stove,Old,yes,1,824
61,PSE-132,Test,none,BW_Word,ear,Old,yes,1,640
63,PSE-132,Test,none,BW_Word,tomato,Old,yes,1,576
68,PSE-132,Test,none,BW_Word,lemon,Old,yes,1,2720
75,PSE-132,Test,none,BW_Word,kangaroo,Old,yes,1,737
79,PSE-132,Test,none,BW_Word,purse,Old,no,0,920
85,PSE-132,Test,none,BW_Word,pitcher,Old,yes,1,904
87,PSE-132,Test,none,BW_Word,wagon,Old,yes,1,840
88,PSE-132,Test,none,BW_Word,table,Old,yes,1,1408
46,PSE-132,Test,none,Colour_Picture,doll,New,no,1,904
50,PSE-132,Test,none,Colour_Picture,fox,New,no,1,880
54,PSE-132,Test,none,Colour_Picture,book,New,no,1,1784
64,PSE-132,Test,none,Colour_Picture,cap,New,yes,0,928
66,PSE-132,Test,none,Colour_Picture,pig,New,no,1,1169
70,PSE-132,Test,none,Colour_Picture,knife,New,no,1,1353
77,PSE-132,Test,none,Colour_Picture,cherry,New,no,1,1280
116,PSE-132,Test,none,Colour_Picture,well,New,no,1,864
117,PSE-132,Test,none,Colour_Picture,rabbit,New,no,1,1064
119,PSE-132,Test,none,Colour_Picture,giraffe,New,no,1,1192
51,PSE-132,Test,none,Colour_Picture,bat,Old,yes,1,784
53,PSE-132,Test,none,Colour_Picture,lamp,Old,yes,1,760
55,PSE-132,Test,none,Colour_Picture,bell,Old,yes,1,768
60,PSE-132,Test,none,Colour_Picture,toothbrush,Old,yes,1,680
62,PSE-132,Test,none,Colour_Picture,clock,Old,yes,1,624
91,PSE-132,Test,none,Colour_Picture,lettuce,Old,yes,1,704
94,PSE-132,Test,none,Colour_Picture,church,Old,yes,1,688
95,PSE-132,Test,none,Colour_Picture,artichoke,Old,yes,1,689
96,PSE-132,Test,none,Colour_Picture,pen,Old,yes,1,665
111,PSE-132,Test,none,Colour_Picture,spool,Old,yes,1,632
41,PSE-132,Test,none,Colour_Word,sled,New,no,1,4191
42,PSE-132,Test,none,Colour_Word,shirt,New,no,1,2151
44,PSE-132,Test,none,Colour_Word,candle,New,no,1,991
57,PSE-132,Test,none,Colour_Word,cake,New,no,1,1512
71,PSE-132,Test,none,Colour_Word,celery,New,no,1,1679
89,PSE-132,Test,none,Colour_Word,eagle,New,no,1,1112
93,PSE-132,Test,none,Colour_Word,box,New,no,1,1016
102,PSE-132,Test,none,Colour_Word,fish,New,no,1,1232
106,PSE-132,Test,none,Colour_Word,bear,New,no,1,1217
118,PSE-132,Test,none,Colour_Word,frog,New,no,1,840
78,PSE-132,Test,none,Colour_Word,drum,Old,no,0,808
81,PSE-132,Test,none,Colour_Word,dress,Old,yes,1,816
83,PSE-132,Test,none,Colour_Word,ball,Old,yes,1,1496
90,PSE-132,Test,none,Colour_Word,penguin,Old,yes,1,744
92,PSE-132,Test,none,Colour_Word,sandwich,Old,yes,1,688
99,PSE-132,Test,none,Colour_Word,chisel,Old,yes,1,624
109,PSE-132,Test,none,Colour_Word,harp,Old,yes,1,616
110,PSE-132,Test,none,Colour_Word,mountain,Old,yes,1,679
112,PSE-132,Test,none,Colour_Word,sun,Old,yes,1,672
115,PSE-132,Test,none,Colour_Word,snail,Old,yes,1,976
5,PSE-133,Study,well,BW_Picture,none,none,none,-1,-1
7,PSE-133,Study,nose,BW_Picture,none,none,none,-1,-1
10,PSE-133,Study,tie,BW_Picture,none,none,none,-1,-1
17,PSE-133,Study,suitcase,BW_Picture,none,none,none,-1,-1
24,PSE-133,Study,thimble,BW_Picture,none,none,none,-1,-1
25,PSE-133,Study,kettle,BW_Picture,none,none,none,-1,-1
27,PSE-133,Study,finger,BW_Picture,none,none,none,-1,-1
29,PSE-133,Study,stove,BW_Picture,none,none,none,-1,-1
34,PSE-133,Study,lightbulb,BW_Picture,none,none,none,-1,-1
36,PSE-133,Study,tortoise,BW_Picture,none,none,none,-1,-1
3,PSE-133,Study,squirrel,BW_Word,none,none,none,-1,-1
8,PSE-133,Study,strawberry,BW_Word,none,none,none,-1,-1
13,PSE-133,Study,peanut,BW_Word,none,none,none,-1,-1
14,PSE-133,Study,lips,BW_Word,none,none,none,-1,-1
18,PSE-133,Study,ear,BW_Word,none,none,none,-1,-1
19,PSE-133,Study,star,BW_Word,none,none,none,-1,-1
23,PSE-133,Study,toothbrush,BW_Word,none,none,none,-1,-1
26,PSE-133,Study,ruler,BW_Word,none,none,none,-1,-1
37,PSE-133,Study,trumpet,BW_Word,none,none,none,-1,-1
39,PSE-133,Study,sock,BW_Word,none,none,none,-1,-1
4,PSE-133,Study,candle,Colour_Picture,none,none,none,-1,-1
6,PSE-133,Study,dress,Colour_Picture,none,none,none,-1,-1
9,PSE-133,Study,paintbrush,Colour_Picture,none,none,none,-1,-1
11,PSE-133,Study,train,Colour_Picture,none,none,none,-1,-1
12,PSE-133,Study,pig,Colour_Picture,none,none,none,-1,-1
15,PSE-133,Study,television,Colour_Picture,none,none,none,-1,-1
16,PSE-133,Study,tiger,Colour_Picture,none,none,none,-1,-1
22,PSE-133,Study,cow,Colour_Picture,none,none,none,-1,-1
33,PSE-133,Study,dog,Colour_Picture,none,none,none,-1,-1
38,PSE-133,Study,bird,Colour_Picture,none,none,none,-1,-1
1,PSE-133,Study,mountain,Colour_Word,none,none,none,-1,-1
2,PSE-133,Study,knife,Colour_Word,none,none,none,-1,-1
20,PSE-133,Study,watermelon,Colour_Word,none,none,none,-1,-1
21,PSE-133,Study,watch,Colour_Word,none,none,none,-1,-1
28,PSE-133,Study,wagon,Colour_Word,none,none,none,-1,-1
30,PSE-133,Study,sun,Colour_Word,none,none,none,-1,-1
31,PSE-133,Study,tomato,Colour_Word,none,none,none,-1,-1
32,PSE-133,Study,shoe,Colour_Word,none,none,none,-1,-1
35,PSE-133,Study,bell,Colour_Word,none,none,none,-1,-1
40,PSE-133,Study,dresser,Colour_Word,none,none,none,-1,-1
41,PSE-133,Test,none,BW_Picture,window,New,no,1,3173
43,PSE-133,Test,none,BW_Picture,camel,New,no,1,1874
66,PSE-133,Test,none,BW_Picture,brush,New,no,1,1207
72,PSE-133,Test,none,BW_Picture,barrel,New,yes,0,1431
73,PSE-133,Test,none,BW_Picture,snake,New,no,1,1254
90,PSE-133,Test,none,BW_Picture,barn,New,no,1,1175
103,PSE-133,Test,none,BW_Picture,rabbit,New,no,1,2158
105,PSE-133,Test,none,BW_Picture,desk,New,no,1,2348
106,PSE-133,Test,none,BW_Picture,lamp,New,no,1,1245
108,PSE-133,Test,none,BW_Picture,ball,New,no,1,1071
50,PSE-133,Test,none,BW_Picture,lightbulb,Old,yes,1,1079
54,PSE-133,Test,none,BW_Picture,tortoise,Old,yes,1,1039
56,PSE-133,Test,none,BW_Picture,nose,Old,yes,1,1047
63,PSE-133,Test,none,BW_Picture,thimble,Old,yes,1,895
69,PSE-133,Test,none,BW_Picture,tie,Old,yes,1,928
75,PSE-133,Test,none,BW_Picture,finger,Old,yes,1,999
97,PSE-133,Test,none,BW_Picture,well,Old,yes,1,871
98,PSE-133,Test,none,BW_Picture,suitcase,Old,no,0,1015
100,PSE-133,Test,none,BW_Picture,kettle,Old,yes,1,911
112,PSE-133,Test,none,BW_Picture,stove,Old,no,0,2956
44,PSE-133,Test,none,BW_Word,purse,New,no,1,1567
48,PSE-133,Test,none,BW_Word,rooster,New,no,1,1480
70,PSE-133,Test,none,BW_Word,peacock,New,no,1,2434
80,PSE-133,Test,none,BW_Word,lion,New,no,1,2925
85,PSE-133,Test,none,BW_Word,stool,New,no,1,1007
89,PSE-133,Test,none,BW_Word,mitten,New,no,1,1934
96,PSE-133,Test,none,BW_Word,sandwich,New,no,1,1223
104,PSE-133,Test,none,BW_Word,button,New,no,1,1254
115,PSE-133,Test,none,BW_Word,envelope,New,no,1,1230
118,PSE-133,Test,none,BW_Word,vase,New,no,1,1326
52,PSE-133,Test,none,BW_Word,peanut,Old,yes,1,1087
58,PSE-133,Test,none,BW_Word,squirrel,Old,yes,1,1031
59,PSE-133,Test,none,BW_Word,strawberry,Old,yes,1,987
62,PSE-133,Test,none,BW_Word,ear,Old,no,0,2346
76,PSE-133,Test,none,BW_Word,lips,Old,no,0,959
78,PSE-133,Test,none,BW_Word,trumpet,Old,no,0,1071
99,PSE-133,Test,none,BW_Word,ruler,Old,yes,1,1047
110,PSE-133,Test,none,BW_Word,sock,Old,no,0,1154
116,PSE-133,Test,none,BW_Word,star,Old,no,0,1885
120,PSE-133,Test,none,BW_Word,toothbrush,Old,no,0,1124
42,PSE-133,Test,none,Colour_Picture,motorcycle,New,no,1,3338
61,PSE-133,Test,none,Colour_Picture,violin,New,no,1,2905
64,PSE-133,Test,none,Colour_Picture,screwdriver,New,no,1,1938
67,PSE-133,Test,none,Colour_Picture,bus,New,yes,0,1382
77,PSE-133,Test,none,Colour_Picture,table,New,no,1,1942
84,PSE-133,Test,none,Colour_Picture,apple,New,no,1,1111
95,PSE-133,Test,none,Colour_Picture,shirt,New,no,1,2557
102,PSE-133,Test,none,Colour_Picture,umbrella,New,no,1,2030
111,PSE-133,Test,none,Colour_Picture,penguin,New,no,1,1910
114,PSE-133,Test,none,Colour_Picture,house,New,no,1,2037
57,PSE-133,Test,none,Colour_Picture,pig,Old,yes,1,1059
60,PSE-133,Test,none,Colour_Picture,dog,Old,yes,1,1128
65,PSE-133,Test,none,Colour_Picture,bird,Old,yes,1,1147
68,PSE-133,Test,none,Colour_Picture,tiger,Old,yes,1,939
79,PSE-133,Test,none,Colour_Picture,cow,Old,no,0,2573
81,PSE-133,Test,none,Colour_Picture,television,Old,yes,1,871
86,PSE-133,Test,none,Colour_Picture,train,Old,yes,1,999
88,PSE-133,Test,none,Colour_Picture,paintbrush,Old,yes,1,1114
92,PSE-133,Test,none,Colour_Picture,dress,Old,yes,1,918
113,PSE-133,Test,none,Colour_Picture,candle,Old,yes,1,999
46,PSE-133,Test,none,Colour_Word,guitar,New,no,1,1411
47,PSE-133,Test,none,Colour_Word,racoon,New,no,1,1287
51,PSE-133,Test,none,Colour_Word,horse,New,no,1,2390
55,PSE-133,Test,none,Colour_Word,pineapple,New,no,1,2310
71,PSE-133,Test,none,Colour_Word,sweater,New,no,1,1355
82,PSE-133,Test,none,Colour_Word,grapes,New,no,1,1909
83,PSE-133,Test,none,Colour_Word,basket,New,no,1,2612
94,PSE-133,Test,none,Colour_Word,saw,New,no,1,2663
107,PSE-133,Test,none,Colour_Word,salt,New,no,1,1302
117,PSE-133,Test,none,Colour_Word,coat,New,no,1,1548
45,PSE-133,Test,none,Colour_Word,dresser,Old,yes,1,1064
49,PSE-133,Test,none,Colour_Word,bell,Old,yes,1,1003
53,PSE-133,Test,none,Colour_Word,shoe,Old,no,0,1227
74,PSE-133,Test,none,Colour_Word,mountain,Old,yes,1,863
87,PSE-133,Test,none,Colour_Word,tomato,Old,yes,1,991
91,PSE-133,Test,none,Colour_Word,sun,Old,yes,1,1015
93,PSE-133,Test,none,Colour_Word,knife,Old,yes,1,862
101,PSE-133,Test,none,Colour_Word,watermelon,Old,yes,1,943
109,PSE-133,Test,none,Colour_Word,wagon,Old,no,0,2181
119,PSE-133,Test,none,Colour_Word,watch,Old,yes,1,2555
1,PSE-134,Study,tiger,BW_Picture,none,none,none,-1,-1
3,PSE-134,Study,chair,BW_Picture,none,none,none,-1,-1
4,PSE-134,Study,lobster,BW_Picture,none,none,none,-1,-1
8,PSE-134,Study,lock,BW_Picture,none,none,none,-1,-1
9,PSE-134,Study,balloon,BW_Picture,none,none,none,-1,-1
14,PSE-134,Study,iron,BW_Picture,none,none,none,-1,-1
20,PSE-134,Study,peanut,BW_Picture,none,none,none,-1,-1
23,PSE-134,Study,stool,BW_Picture,none,none,none,-1,-1
29,PSE-134,Study,house,BW_Picture,none,none,none,-1,-1
30,PSE-134,Study,bicycle,BW_Picture,none,none,none,-1,-1
2,PSE-134,Study,pineapple,BW_Word,none,none,none,-1,-1
11,PSE-134,Study,clown,BW_Word,none,none,none,-1,-1
19,PSE-134,Study,crown,BW_Word,none,none,none,-1,-1
21,PSE-134,Study,tomato,BW_Word,none,none,none,-1,-1
22,PSE-134,Study,car,BW_Word,none,none,none,-1,-1
27,PSE-134,Study,bird,BW_Word,none,none,none,-1,-1
28,PSE-134,Study,knife,BW_Word,none,none,none,-1,-1
34,PSE-134,Study,penguin,BW_Word,none,none,none,-1,-1
37,PSE-134,Study,ruler,BW_Word,none,none,none,-1,-1
38,PSE-134,Study,vase,BW_Word,none,none,none,-1,-1
5,PSE-134,Study,coat,Colour_Picture,none,none,none,-1,-1
12,PSE-134,Study,nose,Colour_Picture,none,none,none,-1,-1
16,PSE-134,Study,television,Colour_Picture,none,none,none,-1,-1
17,PSE-134,Study,button,Colour_Picture,none,none,none,-1,-1
18,PSE-134,Study,owl,Colour_Picture,none,none,none,-1,-1
25,PSE-134,Study,pig,Colour_Picture,none,none,none,-1,-1
26,PSE-134,Study,carrot,Colour_Picture,none,none,none,-1,-1
31,PSE-134,Study,asparagus,Colour_Picture,none,none,none,-1,-1
32,PSE-134,Study,apple,Colour_Picture,none,none,none,-1,-1
40,PSE-134,Study,onion,Colour_Picture,none,none,none,-1,-1
6,PSE-134,Study,glove,Colour_Word,none,none,none,-1,-1
7,PSE-134,Study,bow,Colour_Word,none,none,none,-1,-1
10,PSE-134,Study,pitcher,Colour_Word,none,none,none,-1,-1
13,PSE-134,Study,peacock,Colour_Word,none,none,none,-1,-1
15,PSE-134,Study,trumpet,Colour_Word,none,none,none,-1,-1
24,PSE-134,Study,ring,Colour_Word,none,none,none,-1,-1
33,PSE-134,Study,chicken,Colour_Word,none,none,none,-1,-1
35,PSE-134,Study,duck,Colour_Word,none,none,none,-1,-1
36,PSE-134,Study,couch,Colour_Word,none,none,none,-1,-1
39,PSE-134,Study,hammer,Colour_Word,none,none,none,-1,-1
57,PSE-134,Test,none,BW_Picture,bowl,New,no,1,1973
71,PSE-134,Test,none,BW_Picture,doll,New,no,1,1859
74,PSE-134,Test,none,BW_Picture,butterfly,New,no,1,1385
86,PSE-134,Test,none,BW_Picture,fish,New,no,1,1488
90,PSE-134,Test,none,BW_Picture,harp,New,no,1,2449
99,PSE-134,Test,none,BW_Picture,pepper,New,no,1,1522
101,PSE-134,Test,none,BW_Picture,lettuce,New,no,1,1575
104,PSE-134,Test,none,BW_Picture,snail,New,no,1,1371
110,PSE-134,Test,none,BW_Picture,camel,New,no,1,1393
117,PSE-134,Test,none,BW_Picture,squirrel,New,no,1,2449
43,PSE-134,Test,none,BW_Picture,balloon,Old,yes,1,1201
49,PSE-134,Test,none,BW_Picture,lobster,Old,yes,1,1113
56,PSE-134,Test,none,BW_Picture,chair,Old,yes,1,1062
73,PSE-134,Test,none,BW_Picture,tiger,Old,yes,1,1087
79,PSE-134,Test,none,BW_Picture,iron,Old,no,0,1324
81,PSE-134,Test,none,BW_Picture,lock,Old,no,0,1288
107,PSE-134,Test,none,BW_Picture,house,Old,no,0,1115
115,PSE-134,Test,none,BW_Picture,peanut,Old,yes,1,1060
116,PSE-134,Test,none,BW_Picture,stool,Old,yes,1,1101
118,PSE-134,Test,none,BW_Picture,bicycle,Old,no,0,1259
42,PSE-134,Test,none,BW_Word,train,New,no,1,2499
47,PSE-134,Test,none,BW_Word,screwdriver,New,no,1,2474
51,PSE-134,Test,none,BW_Word,bus,New,no,1,1861
62,PSE-134,Test,none,BW_Word,pen,New,no,1,1875
72,PSE-134,Test,none,BW_Word,star,New,no,1,1374
85,PSE-134,Test,none,BW_Word,tree,New,no,1,2000
92,PSE-134,Test,none,BW_Word,pumpkin,New,no,1,2087
102,PSE-134,Test,none,BW_Word,fox,New,no,1,1524
108,PSE-134,Test,none,BW_Word,basket,New,no,1,1963
109,PSE-134,Test,none,BW_Word,cake,New,no,1,2099
41,PSE-134,Test,none,BW_Word,tomato,Old,yes,1,1562
52,PSE-134,Test,none,BW_Word,clown,Old,yes,1,1062
53,PSE-134,Test,none,BW_Word,pineapple,Old,yes,1,1112
58,PSE-134,Test,none,BW_Word,crown,Old,yes,1,1070
59,PSE-134,Test,none,BW_Word,bird,Old,yes,1,1025
60,PSE-134,Test,none,BW_Word,car,Old,yes,1,1500
76,PSE-134,Test,none,BW_Word,knife,Old,yes,1,1312
82,PSE-134,Test,none,BW_Word,penguin,Old,yes,1,1031
89,PSE-134,Test,none,BW_Word,vase,Old,yes,1,1321
91,PSE-134,Test,none,BW_Word,ruler,Old,yes,1,1096
54,PSE-134,Test,none,Colour_Picture,flag,New,no,1,2112
66,PSE-134,Test,none,Colour_Picture,toothbrush,New,no,1,1325
68,PSE-134,Test,none,Colour_Picture,door,New,no,1,1614
70,PSE-134,Test,none,Colour_Picture,umbrella,New,yes,0,1424
87,PSE-134,Test,none,Colour_Picture,box,New,no,1,1400
93,PSE-134,Test,none,Colour_Picture,axe,New,no,1,1425
103,PSE-134,Test,none,Colour_Picture,mountain,New,no,1,1412
111,PSE-134,Test,none,Colour_Picture,sock,New,no,1,1373
114,PSE-134,Test,none,Colour_Picture,tie,New,no,1,1949
120,PSE-134,Test,none,Colour_Picture,well,New,no,1,2646
44,PSE-134,Test,none,Colour_Picture,coat,Old,yes,1,1050
46,PSE-134,Test,none,Colour_Picture,television,Old,yes,1,1152
48,PSE-134,Test,none,Colour_Picture,nose,Old,yes,1,1172
61,PSE-134,Test,none,Colour_Picture,button,Old,yes,1,1011
64,PSE-134,Test,none,Colour_Picture,owl,Old,yes,1,1123
83,PSE-134,Test,none,Colour_Picture,carrot,Old,yes,1,1025
84,PSE-134,Test,none,Colour_Picture,pig,Old,yes,1,1036
96,PSE-134,Test,none,Colour_Picture,asparagus,Old,yes,1,1173
105,PSE-134,Test,none,Colour_Picture,onion,Old,yes,1,1061
112,PSE-134,Test,none,Colour_Picture,apple,Old,yes,1,1073
45,PSE-134,Test,none,Colour_Word,refrigerator,New,no,1,4092
63,PSE-134,Test,none,Colour_Word,pear,New,no,1,1751
65,PSE-134,Test,none,Colour_Word,motorcycle,New,no,1,2649
67,PSE-134,Test,none,Colour_Word,tortoise,New,no,1,1418
69,PSE-134,Test,none,Colour_Word,bread,New,no,1,1484
78,PSE-134,Test,none,Colour_Word,watermelon,New,no,1,2798
80,PSE-134,Test,none,Colour_Word,thimble,New,no,1,1937
94,PSE-134,Test,none,Colour_Word,guitar,New,no,1,2049
95,PSE-134,Test,none,Colour_Word,bat,New,no,1,1261
97,PSE-134,Test,none,Colour_Word,caterpillar,New,no,1,2236
50,PSE-134,Test,none,Colour_Word,peacock,Old,yes,1,1640
55,PSE-134,Test,none,Colour_Word,bow,Old,yes,1,1403
75,PSE-134,Test,none,Colour_Word,glove,Old,yes,1,1160
77,PSE-134,Test,none,Colour_Word,ring,Old,yes,1,1150
88,PSE-134,Test,none,Colour_Word,chicken,Old,yes,1,1110
98,PSE-134,Test,none,Colour_Word,pitcher,Old,yes,1,1086
100,PSE-134,Test,none,Colour_Word,couch,Old,yes,1,1159
106,PSE-134,Test,none,Colour_Word,trumpet,Old,no,0,1398
113,PSE-134,Test,none,Colour_Word,duck,Old,yes,1,1110
119,PSE-134,Test,none,Colour_Word,hammer,Old,yes,1,1497
1,PSE-136,Study,basket,BW_Picture,none,none,none,-1,-1
3,PSE-136,Study,sun,BW_Picture,none,none,none,-1,-1
9,PSE-136,Study,book,BW_Picture,none,none,none,-1,-1
11,PSE-136,Study,tiger,BW_Picture,none,none,none,-1,-1
15,PSE-136,Study,dog,BW_Picture,none,none,none,-1,-1
16,PSE-136,Study,grapes,BW_Picture,none,none,none,-1,-1
17,PSE-136,Study,sock,BW_Picture,none,none,none,-1,-1
26,PSE-136,Study,mountain,BW_Picture,none,none,none,-1,-1
28,PSE-136,Study,snail,BW_Picture,none,none,none,-1,-1
37,PSE-136,Study,butterfly,BW_Picture,none,none,none,-1,-1
4,PSE-136,Study,stove,BW_Word,none,none,none,-1,-1
12,PSE-136,Study,sailboat,BW_Word,none,none,none,-1,-1
23,PSE-136,Study,celery,BW_Word,none,none,none,-1,-1
27,PSE-136,Study,kangaroo,BW_Word,none,none,none,-1,-1
29,PSE-136,Study,grasshopper,BW_Word,none,none,none,-1,-1
31,PSE-136,Study,chisel,BW_Word,none,none,none,-1,-1
32,PSE-136,Study,drum,BW_Word,none,none,none,-1,-1
34,PSE-136,Study,axe,BW_Word,none,none,none,-1,-1
35,PSE-136,Study,wagon,BW_Word,none,none,none,-1,-1
40,PSE-136,Study,violin,BW_Word,none,none,none,-1,-1
6,PSE-136,Study,peanut,Colour_Picture,none,none,none,-1,-1
7,PSE-136,Study,owl,Colour_Picture,none,none,none,-1,-1
8,PSE-136,Study,bow,Colour_Picture,none,none,none,-1,-1
13,PSE-136,Study,banana,Colour_Picture,none,none,none,-1,-1
20,PSE-136,Study,spool,Colour_Picture,none,none,none,-1,-1
21,PSE-136,Study,onion,Colour_Picture,none,none,none,-1,-1
22,PSE-136,Study,watermelon,Colour_Picture,none,none,none,-1,-1
24,PSE-136,Study,flag,Colour_Picture,none,none,none,-1,-1
25,PSE-136,Study,kettle,Colour_Picture,none,none,none,-1,-1
39,PSE-136,Study,camel,Colour_Picture,none,none,none,-1,-1
2,PSE-136,Study,bear,Colour_Word,none,none,none,-1,-1
5,PSE-136,Study,bread,Colour_Word,none,none,none,-1,-1
10,PSE-136,Study,duck,Colour_Word,none,none,none,-1,-1
14,PSE-136,Study,hammer,Colour_Word,none,none,none,-1,-1
18,PSE-136,Study,bed,Colour_Word,none,none,none,-1,-1
19,PSE-136,Study,window,Colour_Word,none,none,none,-1,-1
30,PSE-136,Study,caterpillar,Colour_Word,none,none,none,-1,-1
33,PSE-136,Study,knife,Colour_Word,none,none,none,-1,-1
36,PSE-136,Study,pitcher,Colour_Word,none,none,none,-1,-1
38,PSE-136,Study,ruler,Colour_Word,none,none,none,-1,-1
48,PSE-136,Test,none,BW_Picture,crown,New,no,1,1610
52,PSE-136,Test,none,BW_Picture,penguin,New,yes,0,1944
75,PSE-136,Test,none,BW_Picture,cow,New,no,1,1121
82,PSE-136,Test,none,BW_Picture,tomato,New,no,1,2653
83,PSE-136,Test,none,BW_Picture,balloon,New,yes,0,1329
99,PSE-136,Test,none,BW_Picture,flower,New,no,1,1658
100,PSE-136,Test,none,BW_Picture,umbrella,New,yes,0,1805
105,PSE-136,Test,none,BW_Picture,leaf,New,no,1,2743
113,PSE-136,Test,none,BW_Picture,coat,New,no,1,2821
116,PSE-136,Test,none,BW_Picture,toothbrush,New,no,1,1378
41,PSE-136,Test,none,BW_Picture,basket,Old,yes,1,1540
53,PSE-136,Test,none,BW_Picture,sun,Old,yes,1,1153
58,PSE-136,Test,none,BW_Picture,book,Old,yes,1,3189
66,PSE-136,Test,none,BW_Picture,tiger,Old,yes,1,1305
68,PSE-136,Test,none,BW_Picture,snail,Old,yes,1,2374
70,PSE-136,Test,none,BW_Picture,dog,Old,yes,1,4395
72,PSE-136,Test,none,BW_Picture,grapes,Old,yes,1,908
101,PSE-136,Test,none,BW_Picture,mountain,Old,yes,1,1105
106,PSE-136,Test,none,BW_Picture,butterfly,Old,yes,1,3729
119,PSE-136,Test,none,BW_Picture,sock,Old,yes,1,1130
42,PSE-136,Test,none,BW_Word,church,New,no,1,3360
46,PSE-136,Test,none,BW_Word,trumpet,New,no,1,1342
57,PSE-136,Test,none,BW_Word,sweater,New,no,1,1561
59,PSE-136,Test,none,BW_Word,car,New,no,1,3247
76,PSE-136,Test,none,BW_Word,thimble,New,no,1,1144
88,PSE-136,Test,none,BW_Word,door,New,no,1,2247
95,PSE-136,Test,none,BW_Word,chicken,New,no,1,1421
102,PSE-136,Test,none,BW_Word,couch,New,yes,0,1347
104,PSE-136,Test,none,BW_Word,horse,New,no,1,1735
115,PSE-136,Test,none,BW_Word,pen,New,no,1,1599
50,PSE-136,Test,none,BW_Word,sailboat,Old,yes,1,2817
54,PSE-136,Test,none,BW_Word,stove,Old,yes,1,1282
67,PSE-136,Test,none,BW_Word,drum,Old,yes,1,2039
69,PSE-136,Test,none,BW_Word,grasshopper,Old,yes,1,1525
79,PSE-136,Test,none,BW_Word,celery,Old,yes,1,1304
86,PSE-136,Test,none,BW_Word,wagon,Old,yes,1,1181
87,PSE-136,Test,none,BW_Word,kangaroo,Old,yes,1,924
93,PSE-136,Test,none,BW_Word,chisel,Old,yes,1,1150
108,PSE-136,Test,none,BW_Word,violin,Old,yes,1,1651
120,PSE-136,Test,none,BW_Word,axe,Old,yes,1,3754
47,PSE-136,Test,none,Colour_Picture,vase,New,no,1,2037
49,PSE-136,Test,none,Colour_Picture,cherry,New,no,1,3210
51,PSE-136,Test,none,Colour_Picture,lips,New,no,1,2502
55,PSE-136,Test,none,Colour_Picture,ball,New,no,1,3132
63,PSE-136,Test,none,Colour_Picture,goat,New,no,1,2470
65,PSE-136,Test,none,Colour_Picture,purse,New,no,1,2771
73,PSE-136,Test,none,Colour_Picture,nose,New,no,1,2417
74,PSE-136,Test,none,Colour_Picture,shirt,New,no,1,1546
92,PSE-136,Test,none,Colour_Picture,tortoise,New,no,1,2609
114,PSE-136,Test,none,Colour_Picture,apple,New,no,1,2681
44,PSE-136,Test,none,Colour_Picture,bow,Old,yes,1,1313
60,PSE-136,Test,none,Colour_Picture,peanut,Old,yes,1,1110
62,PSE-136,Test,none,Colour_Picture,banana,Old,yes,1,1044
64,PSE-136,Test,none,Colour_Picture,owl,Old,yes,1,1143
71,PSE-136,Test,none,Colour_Picture,onion,Old,yes,1,1371
80,PSE-136,Test,none,Colour_Picture,spool,Old,yes,1,995
84,PSE-136,Test,none,Colour_Picture,watermelon,Old,yes,1,1025
85,PSE-136,Test,none,Colour_Picture,kettle,Old,yes,1,954
89,PSE-136,Test,none,Colour_Picture,flag,Old,yes,1,1239
103,PSE-136,Test,none,Colour_Picture,camel,Old,yes,1,1319
45,PSE-136,Test,none,Colour_Word,pumpkin,New,no,1,4180
56,PSE-136,Test,none,Colour_Word,fish,New,no,1,2098
61,PSE-136,Test,none,Colour_Word,box,New,no,1,2991
77,PSE-136,Test,none,Colour_Word,stool,New,no,1,1545
90,PSE-136,Test,none,Colour_Word,boot,New,no,1,1904
94,PSE-136,Test,none,Colour_Word,corn,New,no,1,3150
98,PSE-136,Test,none,Colour_Word,saw,New,no,1,2519
109,PSE-136,Test,none,Colour_Word,pig,New,no,1,2750
110,PSE-136,Test,none,Colour_Word,bottle,New,no,1,2402
118,PSE-136,Test,none,Colour_Word,button,New,no,1,1203
43,PSE-136,Test,none,Colour_Word,bear,Old,yes,1,1299
78,PSE-136,Test,none,Colour_Word,duck,Old,yes,1,1143
81,PSE-136,Test,none,Colour_Word,bread,Old,yes,1,1098
91,PSE-136,Test,none,Colour_Word,hammer,Old,yes,1,2258
96,PSE-136,Test,none,Colour_Word,knife,Old,yes,1,1072
97,PSE-136,Test,none,Colour_Word,bed,Old,yes,1,1170
107,PSE-136,Test,none,Colour_Word,caterpillar,Old,yes,1,1152
111,PSE-136,Test,none,Colour_Word,ruler,Old,yes,1,1086
112,PSE-136,Test,none,Colour_Word,window,Old,yes,1,1051
117,PSE-136,Test,none,Colour_Word,pitcher,Old,yes,1,1872
2,PSE-137,Study,giraffe,BW_Picture,none,none,none,-1,-1
17,PSE-137,Study,snail,BW_Picture,none,none,none,-1,-1
24,PSE-137,Study,belt,BW_Picture,none,none,none,-1,-1
27,PSE-137,Study,pear,BW_Picture,none,none,none,-1,-1
28,PSE-137,Study,cap,BW_Picture,none,none,none,-1,-1
30,PSE-137,Study,celery,BW_Picture,none,none,none,-1,-1
35,PSE-137,Study,candle,BW_Picture,none,none,none,-1,-1
38,PSE-137,Study,eagle,BW_Picture,none,none,none,-1,-1
39,PSE-137,Study,stove,BW_Picture,none,none,none,-1,-1
40,PSE-137,Study,pitcher,BW_Picture,none,none,none,-1,-1
1,PSE-137,Study,artichoke,BW_Word,none,none,none,-1,-1
4,PSE-137,Study,sled,BW_Word,none,none,none,-1,-1
5,PSE-137,Study,pineapple,BW_Word,none,none,none,-1,-1
7,PSE-137,Study,glass,BW_Word,none,none,none,-1,-1
12,PSE-137,Study,train,BW_Word,none,none,none,-1,-1
19,PSE-137,Study,barrel,BW_Word,none,none,none,-1,-1
26,PSE-137,Study,dresser,BW_Word,none,none,none,-1,-1
31,PSE-137,Study,clock,BW_Word,none,none,none,-1,-1
32,PSE-137,Study,axe,BW_Word,none,none,none,-1,-1
33,PSE-137,Study,church,BW_Word,none,none,none,-1,-1
6,PSE-137,Study,chicken,Colour_Picture,none,none,none,-1,-1
8,PSE-137,Study,fox,Colour_Picture,none,none,none,-1,-1
9,PSE-137,Study,car,Colour_Picture,none,none,none,-1,-1
10,PSE-137,Study,sandwich,Colour_Picture,none,none,none,-1,-1
11,PSE-137,Study,toothbrush,Colour_Picture,none,none,none,-1,-1
13,PSE-137,Study,pepper,Colour_Picture,none,none,none,-1,-1
15,PSE-137,Study,umbrella,Colour_Picture,none,none,none,-1,-1
18,PSE-137,Study,asparagus,Colour_Picture,none,none,none,-1,-1
20,PSE-137,Study,suitcase,Colour_Picture,none,none,none,-1,-1
25,PSE-137,Study,window,Colour_Picture,none,none,none,-1,-1
3,PSE-137,Study,lemon,Colour_Word,none,none,none,-1,-1
14,PSE-137,Study,lettuce,Colour_Word,none,none,none,-1,-1
16,PSE-137,Study,boot,Colour_Word,none,none,none,-1,-1
21,PSE-137,Study,television,Colour_Word,none,none,none,-1,-1
22,PSE-137,Study,mountain,Colour_Word,none,none,none,-1,-1
23,PSE-137,Study,helicopter,Colour_Word,none,none,none,-1,-1
29,PSE-137,Study,shoe,Colour_Word,none,none,none,-1,-1
34,PSE-137,Study,thimble,Colour_Word,none,none,none,-1,-1
36,PSE-137,Study,cherry,Colour_Word,none,none,none,-1,-1
37,PSE-137,Study,pen,Colour_Word,none,none,none,-1,-1
43,PSE-137,Test,none,BW_Picture,corn,New,no,1,4100
64,PSE-137,Test,none,BW_Picture,sun,New,no,1,2098
66,PSE-137,Test,none,BW_Picture,envelope,New,no,1,1563
72,PSE-137,Test,none,BW_Picture,dress,New,no,1,2035
78,PSE-137,Test,none,BW_Picture,house,New,no,1,1341
83,PSE-137,Test,none,BW_Picture,clown,New,no,1,1644
96,PSE-137,Test,none,BW_Picture,duck,New,no,1,1695
107,PSE-137,Test,none,BW_Picture,ruler,New,no,1,1889
115,PSE-137,Test,none,BW_Picture,squirrel,New,no,1,1268
118,PSE-137,Test,none,BW_Picture,bird,New,no,1,1675
56,PSE-137,Test,none,BW_Picture,giraffe,Old,yes,1,1049
58,PSE-137,Test,none,BW_Picture,pear,Old,no,0,2440
63,PSE-137,Test,none,BW_Picture,snail,Old,yes,1,862
65,PSE-137,Test,none,BW_Picture,belt,Old,yes,1,1172
69,PSE-137,Test,none,BW_Picture,cap,Old,yes,1,928
70,PSE-137,Test,none,BW_Picture,celery,Old,yes,1,977
74,PSE-137,Test,none,BW_Picture,pitcher,Old,yes,1,889
80,PSE-137,Test,none,BW_Picture,candle,Old,yes,1,1038
100,PSE-137,Test,none,BW_Picture,eagle,Old,yes,1,1066
114,PSE-137,Test,none,BW_Picture,stove,Old,yes,1,968
44,PSE-137,Test,none,BW_Word,snake,New,no,1,1735
82,PSE-137,Test,none,BW_Word,pencil,New,no,1,2075
84,PSE-137,Test,none,BW_Word,spool,New,no,1,1684
89,PSE-137,Test,none,BW_Word,sweater,New,no,1,2995
90,PSE-137,Test,none,BW_Word,ball,New,no,1,1702
94,PSE-137,Test,none,BW_Word,fish,New,no,1,1837
99,PSE-137,Test,none,BW_Word,barn,New,no,1,1694
105,PSE-137,Test,none,BW_Word,bat,New,no,1,1130
112,PSE-137,Test,none,BW_Word,tortoise,New,no,1,2300
119,PSE-137,Test,none,BW_Word,bow,New,no,1,1200
45,PSE-137,Test,none,BW_Word,pineapple,Old,yes,1,2159
49,PSE-137,Test,none,BW_Word,artichoke,Old,yes,1,1250
59,PSE-137,Test,none,BW_Word,sled,Old,yes,1,1019
61,PSE-137,Test,none,BW_Word,glass,Old,yes,1,1029
68,PSE-137,Test,none,BW_Word,clock,Old,yes,1,867
71,PSE-137,Test,none,BW_Word,train,Old,yes,1,1398
77,PSE-137,Test,none,BW_Word,barrel,Old,no,0,1099
81,PSE-137,Test,none,BW_Word,dresser,Old,no,0,979
86,PSE-137,Test,none,BW_Word,axe,Old,yes,1,1630
104,PSE-137,Test,none,BW_Word,church,Old,yes,1,1140
41,PSE-137,Test,none,Colour_Picture,book,New,no,1,2620
42,PSE-137,Test,none,Colour_Picture,apple,New,no,1,3724
51,PSE-137,Test,none,Colour_Picture,bottle,New,no,1,2327
62,PSE-137,Test,none,Colour_Picture,chisel,New,no,1,1967
87,PSE-137,Test,none,Colour_Picture,kettle,New,no,1,2210
103,PSE-137,Test,none,Colour_Picture,pig,New,no,1,2331
108,PSE-137,Test,none,Colour_Picture,foot,New,no,1,1422
110,PSE-137,Test,none,Colour_Picture,grasshopper,New,no,1,1218
113,PSE-137,Test,none,Colour_Picture,racoon,New,no,1,1988
116,PSE-137,Test,none,Colour_Picture,tree,New,no,1,1513
46,PSE-137,Test,none,Colour_Picture,fox,Old,yes,1,1210
57,PSE-137,Test,none,Colour_Picture,sandwich,Old,yes,1,908
60,PSE-137,Test,none,Colour_Picture,chicken,Old,yes,1,950
67,PSE-137,Test,none,Colour_Picture,car,Old,yes,1,947
73,PSE-137,Test,none,Colour_Picture,pepper,Old,yes,1,945
88,PSE-137,Test,none,Colour_Picture,toothbrush,Old,yes,1,1271
93,PSE-137,Test,none,Colour_Picture,umbrella,Old,yes,1,1392
95,PSE-137,Test,none,Colour_Picture,asparagus,Old,yes,1,1400
102,PSE-137,Test,none,Colour_Picture,window,Old,yes,1,989
111,PSE-137,Test,none,Colour_Picture,suitcase,Old,yes,1,1160
48,PSE-137,Test,none,Colour_Word,truck,New,no,1,2703
54,PSE-137,Test,none,Colour_Word,paintbrush,New,no,1,2026
76,PSE-137,Test,none,Colour_Word,cake,New,no,1,2339
85,PSE-137,Test,none,Colour_Word,peacock,New,no,1,2985
97,PSE-137,Test,none,Colour_Word,deer,New,no,1,2472
101,PSE-137,Test,none,Colour_Word,iron,New,no,1,1533
106,PSE-137,Test,none,Colour_Word,basket,New,no,1,2566
109,PSE-137,Test,none,Colour_Word,potato,New,no,1,1483
117,PSE-137,Test,none,Colour_Word,kangaroo,New,no,1,2008
120,PSE-137,Test,none,Colour_Word,rabbit,New,no,1,1886
47,PSE-137,Test,none,Colour_Word,helicopter,Old,yes,1,1058
50,PSE-137,Test,none,Colour_Word,shoe,Old,no,0,1986
52,PSE-137,Test,none,Colour_Word,lettuce,Old,yes,1,1191
53,PSE-137,Test,none,Colour_Word,boot,Old,yes,1,1038
55,PSE-137,Test,none,Colour_Word,television,Old,yes,1,1517
75,PSE-137,Test,none,Colour_Word,lemon,Old,yes,1,1300
79,PSE-137,Test,none,Colour_Word,mountain,Old,yes,1,958
91,PSE-137,Test,none,Colour_Word,thimble,Old,yes,1,1239
92,PSE-137,Test,none,Colour_Word,pen,Old,yes,1,1049
98,PSE-137,Test,none,Colour_Word,cherry,Old,no,0,979
3,PSE-138,Study,onion,BW_Picture,none,none,none,-1,-1
4,PSE-138,Study,hand,BW_Picture,none,none,none,-1,-1
5,PSE-138,Study,lion,BW_Picture,none,none,none,-1,-1
14,PSE-138,Study,toothbrush,BW_Picture,none,none,none,-1,-1
16,PSE-138,Study,flag,BW_Picture,none,none,none,-1,-1
19,PSE-138,Study,tie,BW_Picture,none,none,none,-1,-1
28,PSE-138,Study,lips,BW_Picture,none,none,none,-1,-1
33,PSE-138,Study,sweater,BW_Picture,none,none,none,-1,-1
34,PSE-138,Study,dress,BW_Picture,none,none,none,-1,-1
35,PSE-138,Study,bed,BW_Picture,none,none,none,-1,-1
7,PSE-138,Study,hammer,BW_Word,none,none,none,-1,-1
9,PSE-138,Study,watermelon,BW_Word,none,none,none,-1,-1
10,PSE-138,Study,eagle,BW_Word,none,none,none,-1,-1
12,PSE-138,Study,bow,BW_Word,none,none,none,-1,-1
13,PSE-138,Study,spool,BW_Word,none,none,none,-1,-1
23,PSE-138,Study,truck,BW_Word,none,none,none,-1,-1
30,PSE-138,Study,bat,BW_Word,none,none,none,-1,-1
32,PSE-138,Study,dresser,BW_Word,none,none,none,-1,-1
37,PSE-138,Study,bottle,BW_Word,none,none,none,-1,-1
39,PSE-138,Study,giraffe,BW_Word,none,none,none,-1,-1
6,PSE-138,Study,flower,Colour_Picture,none,none,none,-1,-1
11,PSE-138,Study,tree,Colour_Picture,none,none,none,-1,-1
17,PSE-138,Study,watch,Colour_Picture,none,none,none,-1,-1
18,PSE-138,Study,finger,Colour_Picture,none,none,none,-1,-1
22,PSE-138,Study,star,Colour_Picture,none,none,none,-1,-1
24,PSE-138,Study,pen,Colour_Picture,none,none,none,-1,-1
27,PSE-138,Study,barn,Colour_Picture,none,none,none,-1,-1
29,PSE-138,Study,dog,Colour_Picture,none,none,none,-1,-1
31,PSE-138,Study,bicycle,Colour_Picture,none,none,none,-1,-1
38,PSE-138,Study,mountain,Colour_Picture,none,none,none,-1,-1
1,PSE-138,Study,peanut,Colour_Word,none,none,none,-1,-1
2,PSE-138,Study,pineapple,Colour_Word,none,none,none,-1,-1
8,PSE-138,Study,bird,Colour_Word,none,none,none,-1,-1
15,PSE-138,Study,shirt,Colour_Word,none,none,none,-1,-1
20,PSE-138,Study,fish,Colour_Word,none,none,none,-1,-1
21,PSE-138,Study,shoe,Colour_Word,none,none,none,-1,-1
25,PSE-138,Study,basket,Colour_Word,none,none,none,-1,-1
26,PSE-138,Study,screwdriver,Colour_Word,none,none,none,-1,-1
36,PSE-138,Study,ear,Colour_Word,none,none,none,-1,-1
40,PSE-138,Study,stove,Colour_Word,none,none,none,-1,-1
41,PSE-138,Test,none,BW_Picture,horse,New,no,1,3389
49,PSE-138,Test,none,BW_Picture,window,New,no,1,1543
50,PSE-138,Test,none,BW_Picture,wagon,New,no,1,1300
74,PSE-138,Test,none,BW_Picture,tortoise,New,no,1,2515
85,PSE-138,Test,none,BW_Picture,boot,New,no,1,1215
91,PSE-138,Test,none,BW_Picture,heart,New,no,1,1260
98,PSE-138,Test,none,BW_Picture,envelope,New,no,1,5534
99,PSE-138,Test,none,BW_Picture,sun,New,no,1,4785
113,PSE-138,Test,none,BW_Picture,table,New,no,1,3561
114,PSE-138,Test,none,BW_Picture,bread,New,no,1,1468
42,PSE-138,Test,none,BW_Picture,hand,Old,no,0,2249
44,PSE-138,Test,none,BW_Picture,onion,Old,yes,1,1116
46,PSE-138,Test,none,BW_Picture,bed,Old,no,0,1131
73,PSE-138,Test,none,BW_Picture,sweater,Old,yes,1,1294
81,PSE-138,Test,none,BW_Picture,dress,Old,yes,1,1063
82,PSE-138,Test,none,BW_Picture,lion,Old,yes,1,1020
103,PSE-138,Test,none,BW_Picture,tie,Old,no,0,1099
104,PSE-138,Test,none,BW_Picture,toothbrush,Old,yes,1,1504
112,PSE-138,Test,none,BW_Picture,lips,Old,yes,1,1371
120,PSE-138,Test,none,BW_Picture,flag,Old,no,0,3754
47,PSE-138,Test,none,BW_Word,strawberry,New,no,1,2512
52,PSE-138,Test,none,BW_Word,well,New,no,1,1420
53,PSE-138,Test,none,BW_Word,book,New,no,1,2347
60,PSE-138,Test,none,BW_Word,umbrella,New,no,1,4867
62,PSE-138,Test,none,BW_Word,kite,New,no,1,5173
68,PSE-138,Test,none,BW_Word,sock,New,no,1,1826
78,PSE-138,Test,none,BW_Word,stool,New,no,1,1407
86,PSE-138,Test,none,BW_Word,lettuce,New,no,1,1075
106,PSE-138,Test,none,BW_Word,knife,New,no,1,2715
117,PSE-138,Test,none,BW_Word,bowl,New,no,1,1745
51,PSE-138,Test,none,BW_Word,giraffe,Old,no,0,1391
65,PSE-138,Test,none,BW_Word,bottle,Old,no,0,1197
70,PSE-138,Test,none,BW_Word,truck,Old,no,0,1340
71,PSE-138,Test,none,BW_Word,bat,Old,yes,1,2026
77,PSE-138,Test,none,BW_Word,eagle,Old,yes,1,1116
84,PSE-138,Test,none,BW_Word,spool,Old,yes,1,1380
87,PSE-138,Test,none,BW_Word,watermelon,Old,yes,1,1145
102,PSE-138,Test,none,BW_Word,dresser,Old,yes,1,1560
111,PSE-138,Test,none,BW_Word,bow,Old,yes,1,2089
119,PSE-138,Test,none,BW_Word,hammer,Old,no,0,1457
43,PSE-138,Test,none,Colour_Picture,banana,New,no,1,8086
61,PSE-138,Test,none,Colour_Picture,clown,New,no,1,3966
75,PSE-138,Test,none,Colour_Picture,violin,New,no,1,1507
76,PSE-138,Test,none,Colour_Picture,guitar,New,no,1,1101
80,PSE-138,Test,none,Colour_Picture,snake,New,no,1,1179
96,PSE-138,Test,none,Colour_Picture,cake,New,no,1,2202
97,PSE-138,Test,none,Colour_Picture,frog,New,no,1,3510
101,PSE-138,Test,none,Colour_Picture,bear,New,no,1,5516
107,PSE-138,Test,none,Colour_Picture,thimble,New,no,1,2434
109,PSE-138,Test,none,Colour_Picture,ball,New,no,1,1785
45,PSE-138,Test,none,Colour_Picture,watch,Old,no,0,1356
58,PSE-138,Test,none,Colour_Picture,bicycle,Old,yes,1,1067
64,PSE-138,Test,none,Colour_Picture,dog,Old,yes,1,1039
66,PSE-138,Test,none,Colour_Picture,mountain,Old,no,0,955
79,PSE-138,Test,none,Colour_Picture,pen,Old,yes,1,971
88,PSE-138,Test,none,Colour_Picture,barn,Old,yes,1,1098
94,PSE-138,Test,none,Colour_Picture,flower,Old,yes,1,1168
95,PSE-138,Test,none,Colour_Picture,star,Old,no,0,874
116,PSE-138,Test,none,Colour_Picture,tree,Old,yes,1,970
118,PSE-138,Test,none,Colour_Picture,finger,Old,yes,1,1202
48,PSE-138,Test,none,Colour_Word,house,New,no,1,3485
54,PSE-138,Test,none,Colour_Word,bell,New,no,1,1841
59,PSE-138,Test,none,Colour_Word,train,New,no,1,5258
63,PSE-138,Test,none,Colour_Word,tomato,New,no,1,3109
72,PSE-138,Test,none,Colour_Word,vase,New,no,1,2742
83,PSE-138,Test,none,Colour_Word,trumpet,New,no,1,2626
89,PSE-138,Test,none,Colour_Word,squirrel,New,no,1,1878
92,PSE-138,Test,none,Colour_Word,tiger,New,no,1,1289
108,PSE-138,Test,none,Colour_Word,ring,New,no,1,3357
115,PSE-138,Test,none,Colour_Word,television,New,no,1,1388
55,PSE-138,Test,none,Colour_Word,stove,Old,yes,1,947
56,PSE-138,Test,none,Colour_Word,fish,Old,yes,1,1175
57,PSE-138,Test,none,Colour_Word,peanut,Old,yes,1,946
67,PSE-138,Test,none,Colour_Word,shoe,Old,no,0,2692
69,PSE-138,Test,none,Colour_Word,basket,Old,no,0,1067
90,PSE-138,Test,none,Colour_Word,pineapple,Old,yes,1,1151
93,PSE-138,Test,none,Colour_Word,shirt,Old,no,0,1508
100,PSE-138,Test,none,Colour_Word,bird,Old,yes,1,1120
105,PSE-138,Test,none,Colour_Word,ear,Old,yes,1,891
110,PSE-138,Test,none,Colour_Word,screwdriver,Old,yes,1,1907
2,PSE-139,Study,saw,BW_Picture,none,none,none,-1,-1
5,PSE-139,Study,guitar,BW_Picture,none,none,none,-1,-1
12,PSE-139,Study,duck,BW_Picture,none,none,none,-1,-1
13,PSE-139,Study,snake,BW_Picture,none,none,none,-1,-1
19,PSE-139,Study,table,BW_Picture,none,none,none,-1,-1
25,PSE-139,Study,knife,BW_Picture,none,none,none,-1,-1
31,PSE-139,Study,pencil,BW_Picture,none,none,none,-1,-1
35,PSE-139,Study,car,BW_Picture,none,none,none,-1,-1
36,PSE-139,Study,belt,BW_Picture,none,none,none,-1,-1
38,PSE-139,Study,alligator,BW_Picture,none,none,none,-1,-1
4,PSE-139,Study,sweater,BW_Word,none,none,none,-1,-1
14,PSE-139,Study,hammer,BW_Word,none,none,none,-1,-1
16,PSE-139,Study,banana,BW_Word,none,none,none,-1,-1
18,PSE-139,Study,barn,BW_Word,none,none,none,-1,-1
20,PSE-139,Study,house,BW_Word,none,none,none,-1,-1
21,PSE-139,Study,paintbrush,BW_Word,none,none,none,-1,-1
24,PSE-139,Study,bottle,BW_Word,none,none,none,-1,-1
29,PSE-139,Study,pig,BW_Word,none,none,none,-1,-1
30,PSE-139,Study,dresser,BW_Word,none,none,none,-1,-1
40,PSE-139,Study,camel,BW_Word,none,none,none,-1,-1
1,PSE-139,Study,monkey,Colour_Picture,none,none,none,-1,-1
3,PSE-139,Study,mitten,Colour_Picture,none,none,none,-1,-1
7,PSE-139,Study,church,Colour_Picture,none,none,none,-1,-1
9,PSE-139,Study,sun,Colour_Picture,none,none,none,-1,-1
17,PSE-139,Study,lamp,Colour_Picture,none,none,none,-1,-1
27,PSE-139,Study,potato,Colour_Picture,none,none,none,-1,-1
28,PSE-139,Study,squirrel,Colour_Picture,none,none,none,-1,-1
32,PSE-139,Study,bowl,Colour_Picture,none,none,none,-1,-1
34,PSE-139,Study,button,Colour_Picture,none,none,none,-1,-1
39,PSE-139,Study,frog,Colour_Picture,none,none,none,-1,-1
6,PSE-139,Study,carrot,Colour_Word,none,none,none,-1,-1
8,PSE-139,Study,dress,Colour_Word,none,none,none,-1,-1
10,PSE-139,Study,shoe,Colour_Word,none,none,none,-1,-1
11,PSE-139,Study,refrigerator,Colour_Word,none,none,none,-1,-1
15,PSE-139,Study,hand,Colour_Word,none,none,none,-1,-1
22,PSE-139,Study,purse,Colour_Word,none,none,none,-1,-1
23,PSE-139,Study,trumpet,Colour_Word,none,none,none,-1,-1
26,PSE-139,Study,bread,Colour_Word,none,none,none,-1,-1
33,PSE-139,Study,kite,Colour_Word,none,none,none,-1,-1
37,PSE-139,Study,grapes,Colour_Word,none,none,none,-1,-1
49,PSE-139,Test,none,BW_Picture,stool,New,no,1,2215
81,PSE-139,Test,none,BW_Picture,celery,New,no,1,1586
91,PSE-139,Test,none,BW_Picture,cow,New,no,1,1051
92,PSE-139,Test,none,BW_Picture,tortoise,New,no,1,1075
97,PSE-139,Test,none,BW_Picture,sled,New,no,1,1320
99,PSE-139,Test,none,BW_Picture,leopard,New,no,1,1280
103,PSE-139,Test,none,BW_Picture,spool,New,no,1,1138
113,PSE-139,Test,none,BW_Picture,vase,New,no,1,946
114,PSE-139,Test,none,BW_Picture,barrel,New,no,1,951
120,PSE-139,Test,none,BW_Picture,pen,New,yes,0,1989
41,PSE-139,Test,none,BW_Picture,guitar,Old,yes,1,1934
55,PSE-139,Test,none,BW_Picture,duck,Old,yes,1,775
70,PSE-139,Test,none,BW_Picture,table,Old,yes,1,1053
72,PSE-139,Test,none,BW_Picture,saw,Old,yes,1,1008
85,PSE-139,Test,none,BW_Picture,knife,Old,yes,1,825
87,PSE-139,Test,none,BW_Picture,snake,Old,yes,1,776
101,PSE-139,Test,none,BW_Picture,pencil,Old,yes,1,910
106,PSE-139,Test,none,BW_Picture,car,Old,no,0,898
115,PSE-139,Test,none,BW_Picture,alligator,Old,no,0,1217
118,PSE-139,Test,none,BW_Picture,belt,Old,yes,1,929
42,PSE-139,Test,none,BW_Word,sock,New,no,1,3044
44,PSE-139,Test,none,BW_Word,chisel,New,no,1,1827
61,PSE-139,Test,none,BW_Word,stove,New,no,1,2621
77,PSE-139,Test,none,BW_Word,glass,New,yes,0,3178
78,PSE-139,Test,none,BW_Word,ear,New,no,1,1191
79,PSE-139,Test,none,BW_Word,door,New,yes,0,1880
80,PSE-139,Test,none,BW_Word,giraffe,New,no,1,1284
86,PSE-139,Test,none,BW_Word,suitcase,New,no,1,1358
107,PSE-139,Test,none,BW_Word,train,New,yes,0,1996
111,PSE-139,Test,none,BW_Word,star,New,no,1,1056
48,PSE-139,Test,none,BW_Word,sweater,Old,yes,1,1013
56,PSE-139,Test,none,BW_Word,banana,Old,yes,1,823
65,PSE-139,Test,none,BW_Word,dresser,Old,yes,1,774
75,PSE-139,Test,none,BW_Word,barn,Old,no,0,1837
83,PSE-139,Test,none,BW_Word,hammer,Old,yes,1,1725
93,PSE-139,Test,none,BW_Word,house,Old,yes,1,2573
94,PSE-139,Test,none,BW_Word,bottle,Old,no,0,1194
98,PSE-139,Test,none,BW_Word,paintbrush,Old,yes,1,1074
102,PSE-139,Test,none,BW_Word,pig,Old,yes,1,872
119,PSE-139,Test,none,BW_Word,camel,Old,no,0,1506
46,PSE-139,Test,none,Colour_Picture,apple,New,no,1,1365
54,PSE-139,Test,none,Colour_Picture,violin,New,no,1,1774
71,PSE-139,Test,none,Colour_Picture,lock,New,no,1,2528
74,PSE-139,Test,none,Colour_Picture,mountain,New,no,1,2836
82,PSE-139,Test,none,Colour_Picture,strawberry,New,no,1,1074
84,PSE-139,Test,none,Colour_Picture,harp,New,no,1,1030
90,PSE-139,Test,none,Colour_Picture,pumpkin,New,no,1,998
100,PSE-139,Test,none,Colour_Picture,lightbulb,New,no,1,1057
108,PSE-139,Test,none,Colour_Picture,chair,New,yes,0,1505
109,PSE-139,Test,none,Colour_Picture,axe,New,no,1,1915
43,PSE-139,Test,none,Colour_Picture,monkey,Old,yes,1,1062
52,PSE-139,Test,none,Colour_Picture,mitten,Old,yes,1,805
57,PSE-139,Test,none,Colour_Picture,church,Old,yes,1,776
58,PSE-139,Test,none,Colour_Picture,sun,Old,yes,1,759
60,PSE-139,Test,none,Colour_Picture,lamp,Old,yes,1,774
64,PSE-139,Test,none,Colour_Picture,potato,Old,yes,1,879
66,PSE-139,Test,none,Colour_Picture,bowl,Old,yes,1,910
68,PSE-139,Test,none,Colour_Picture,squirrel,Old,yes,1,910
76,PSE-139,Test,none,Colour_Picture,button,Old,yes,1,895
104,PSE-139,Test,none,Colour_Picture,frog,Old,yes,1,862
45,PSE-139,Test,none,Colour_Word,bell,New,no,1,1670
47,PSE-139,Test,none,Colour_Word,artichoke,New,no,1,2044
53,PSE-139,Test,none,Colour_Word,basket,New,no,1,3581
62,PSE-139,Test,none,Colour_Word,fish,New,no,1,1352
67,PSE-139,Test,none,Colour_Word,iron,New,no,1,2118
88,PSE-139,Test,none,Colour_Word,brush,New,no,1,2303
89,PSE-139,Test,none,Colour_Word,helicopter,New,no,1,1102
95,PSE-139,Test,none,Colour_Word,salt,New,no,1,1761
110,PSE-139,Test,none,Colour_Word,heart,New,no,1,1791
117,PSE-139,Test,none,Colour_Word,ruler,New,no,1,1775
50,PSE-139,Test,none,Colour_Word,carrot,Old,yes,1,853
51,PSE-139,Test,none,Colour_Word,dress,Old,yes,1,949
59,PSE-139,Test,none,Colour_Word,shoe,Old,no,0,2743
63,PSE-139,Test,none,Colour_Word,purse,Old,yes,1,886
69,PSE-139,Test,none,Colour_Word,trumpet,Old,yes,1,940
73,PSE-139,Test,none,Colour_Word,refrigerator,Old,yes,1,8468
96,PSE-139,Test,none,Colour_Word,bread,Old,no,0,922
105,PSE-139,Test,none,Colour_Word,hand,Old,no,0,934
112,PSE-139,Test,none,Colour_Word,kite,Old,no,0,923
116,PSE-139,Test,none,Colour_Word,grapes,Old,no,0,1015
2,PSE-140,Study,tomato,BW_Picture,none,none,none,-1,-1
8,PSE-140,Study,pumpkin,BW_Picture,none,none,none,-1,-1
9,PSE-140,Study,dress,BW_Picture,none,none,none,-1,-1
12,PSE-140,Study,celery,BW_Picture,none,none,none,-1,-1
13,PSE-140,Study,mitten,BW_Picture,none,none,none,-1,-1
18,PSE-140,Study,banana,BW_Picture,none,none,none,-1,-1
24,PSE-140,Study,bus,BW_Picture,none,none,none,-1,-1
25,PSE-140,Study,strawberry,BW_Picture,none,none,none,-1,-1
29,PSE-140,Study,bottle,BW_Picture,none,none,none,-1,-1
39,PSE-140,Study,grapes,BW_Picture,none,none,none,-1,-1
1,PSE-140,Study,horse,BW_Word,none,none,none,-1,-1
5,PSE-140,Study,bear,BW_Word,none,none,none,-1,-1
7,PSE-140,Study,asparagus,BW_Word,none,none,none,-1,-1
10,PSE-140,Study,knife,BW_Word,none,none,none,-1,-1
17,PSE-140,Study,cake,BW_Word,none,none,none,-1,-1
20,PSE-140,Study,book,BW_Word,none,none,none,-1,-1
27,PSE-140,Study,ring,BW_Word,none,none,none,-1,-1
28,PSE-140,Study,sandwich,BW_Word,none,none,none,-1,-1
31,PSE-140,Study,cow,BW_Word,none,none,none,-1,-1
33,PSE-140,Study,cap,BW_Word,none,none,none,-1,-1
3,PSE-140,Study,butterfly,Colour_Picture,none,none,none,-1,-1
6,PSE-140,Study,suitcase,Colour_Picture,none,none,none,-1,-1
14,PSE-140,Study,tiger,Colour_Picture,none,none,none,-1,-1
23,PSE-140,Study,kangaroo,Colour_Picture,none,none,none,-1,-1
26,PSE-140,Study,monkey,Colour_Picture,none,none,none,-1,-1
30,PSE-140,Study,violin,Colour_Picture,none,none,none,-1,-1
32,PSE-140,Study,tortoise,Colour_Picture,none,none,none,-1,-1
35,PSE-140,Study,stove,Colour_Picture,none,none,none,-1,-1
37,PSE-140,Study,peanut,Colour_Picture,none,none,none,-1,-1
38,PSE-140,Study,mountain,Colour_Picture,none,none,none,-1,-1
4,PSE-140,Study,lightbulb,Colour_Word,none,none,none,-1,-1
11,PSE-140,Study,nose,Colour_Word,none,none,none,-1,-1
15,PSE-140,Study,finger,Colour_Word,none,none,none,-1,-1
16,PSE-140,Study,bed,Colour_Word,none,none,none,-1,-1
19,PSE-140,Study,ear,Colour_Word,none,none,none,-1,-1
21,PSE-140,Study,alligator,Colour_Word,none,none,none,-1,-1
22,PSE-140,Study,snake,Colour_Word,none,none,none,-1,-1
34,PSE-140,Study,sweater,Colour_Word,none,none,none,-1,-1
36,PSE-140,Study,glass,Colour_Word,none,none,none,-1,-1
40,PSE-140,Study,lemon,Colour_Word,none,none,none,-1,-1
41,PSE-140,Test,none,BW_Picture,pitcher,New,no,1,3019
60,PSE-140,Test,none,BW_Picture,sled,New,no,1,1629
63,PSE-140,Test,none,BW_Picture,refrigerator,New,yes,0,1476
69,PSE-140,Test,none,BW_Picture,salt,New,no,1,1565
78,PSE-140,Test,none,BW_Picture,basket,New,yes,0,2332
100,PSE-140,Test,none,BW_Picture,clock,New,no,1,3988
106,PSE-140,Test,none,BW_Picture,giraffe,New,yes,0,1369
110,PSE-140,Test,none,BW_Picture,rooster,New,yes,0,1129
117,PSE-140,Test,none,BW_Picture,tie,New,yes,0,1175
119,PSE-140,Test,none,BW_Picture,chicken,New,yes,0,1031
44,PSE-140,Test,none,BW_Picture,tomato,Old,yes,1,1021
47,PSE-140,Test,none,BW_Picture,pumpkin,Old,yes,1,1199
54,PSE-140,Test,none,BW_Picture,dress,Old,yes,1,1283
72,PSE-140,Test,none,BW_Picture,mitten,Old,yes,1,1108
73,PSE-140,Test,none,BW_Picture,banana,Old,yes,1,1209
76,PSE-140,Test,none,BW_Picture,strawberry,Old,yes,1,1108
86,PSE-140,Test,none,BW_Picture,bus,Old,yes,1,1881
105,PSE-140,Test,none,BW_Picture,celery,Old,yes,1,1094
112,PSE-140,Test,none,BW_Picture,bottle,Old,yes,1,1512
115,PSE-140,Test,none,BW_Picture,grapes,Old,yes,1,1436
43,PSE-140,Test,none,BW_Word,chisel,New,no,1,2475
55,PSE-140,Test,none,BW_Word,carrot,New,no,1,6516
57,PSE-140,Test,none,BW_Word,axe,New,no,1,2283
59,PSE-140,Test,none,BW_Word,snail,New,no,1,1283
74,PSE-140,Test,none,BW_Word,fish,New,no,1,1993
90,PSE-140,Test,none,BW_Word,purse,New,yes,0,2056
91,PSE-140,Test,none,BW_Word,wagon,New,no,1,2548
104,PSE-140,Test,none,BW_Word,potato,New,no,1,1184
116,PSE-140,Test,none,BW_Word,peacock,New,no,1,1296
118,PSE-140,Test,none,BW_Word,iron,New,no,1,1304
48,PSE-140,Test,none,BW_Word,horse,Old,yes,1,1799
67,PSE-140,Test,none,BW_Word,bear,Old,yes,1,1385
75,PSE-140,Test,none,BW_Word,cake,Old,no,0,1296
83,PSE-140,Test,none,BW_Word,asparagus,Old,no,0,1064
92,PSE-140,Test,none,BW_Word,knife,Old,yes,1,4777
93,PSE-140,Test,none,BW_Word,ring,Old,yes,1,1267
95,PSE-140,Test,none,BW_Word,book,Old,yes,1,4265
98,PSE-140,Test,none,BW_Word,cow,Old,no,0,1016
107,PSE-140,Test,none,BW_Word,sandwich,Old,no,0,1039
111,PSE-140,Test,none,BW_Word,cap,Old,no,0,817
56,PSE-140,Test,none,Colour_Picture,duck,New,no,1,2875
58,PSE-140,Test,none,Colour_Picture,sailboat,New,no,1,1932
65,PSE-140,Test,none,Colour_Picture,camel,New,yes,0,1749
66,PSE-140,Test,none,Colour_Picture,door,New,no,1,1361
70,PSE-140,Test,none,Colour_Picture,lamp,New,no,1,1767
71,PSE-140,Test,none,Colour_Picture,couch,New,no,1,1344
87,PSE-140,Test,none,Colour_Picture,brush,New,yes,0,2404
89,PSE-140,Test,none,Colour_Picture,guitar,New,yes,0,3774
103,PSE-140,Test,none,Colour_Picture,coat,New,no,1,2215
114,PSE-140,Test,none,Colour_Picture,apple,New,yes,0,2267
42,PSE-140,Test,none,Colour_Picture,butterfly,Old,yes,1,1125
46,PSE-140,Test,none,Colour_Picture,tiger,Old,yes,1,1058
77,PSE-140,Test,none,Colour_Picture,suitcase,Old,yes,1,1041
79,PSE-140,Test,none,Colour_Picture,kangaroo,Old,yes,1,832
82,PSE-140,Test,none,Colour_Picture,monkey,Old,yes,1,1088
85,PSE-140,Test,none,Colour_Picture,tortoise,Old,yes,1,2390
94,PSE-140,Test,none,Colour_Picture,violin,Old,yes,1,1009
101,PSE-140,Test,none,Colour_Picture,stove,Old,yes,1,1237
109,PSE-140,Test,none,Colour_Picture,peanut,Old,yes,1,928
113,PSE-140,Test,none,Colour_Picture,mountain,Old,yes,1,1973
49,PSE-140,Test,none,Colour_Word,sock,New,no,1,2384
51,PSE-140,Test,none,Colour_Word,barrel,New,yes,0,3027
53,PSE-140,Test,none,Colour_Word,helicopter,New,no,1,3253
61,PSE-140,Test,none,Colour_Word,thimble,New,no,1,1577
62,PSE-140,Test,none,Colour_Word,bird,New,no,1,1440
64,PSE-140,Test,none,Colour_Word,heart,New,no,1,1468
68,PSE-140,Test,none,Colour_Word,kite,New,no,1,1211
84,PSE-140,Test,none,Colour_Word,bicycle,New,yes,0,1151
108,PSE-140,Test,none,Colour_Word,eagle,New,no,1,1652
120,PSE-140,Test,none,Colour_Word,fox,New,no,1,1206
45,PSE-140,Test,none,Colour_Word,finger,Old,yes,1,1080
50,PSE-140,Test,none,Colour_Word,nose,Old,yes,1,1136
52,PSE-140,Test,none,Colour_Word,ear,Old,yes,1,1008
80,PSE-140,Test,none,Colour_Word,lightbulb,Old,no,0,1629
81,PSE-140,Test,none,Colour_Word,bed,Old,yes,1,1047
88,PSE-140,Test,none,Colour_Word,alligator,Old,yes,1,999
96,PSE-140,Test,none,Colour_Word,snake,Old,yes,1,1013
97,PSE-140,Test,none,Colour_Word,sweater,Old,no,0,1235
99,PSE-140,Test,none,Colour_Word,glass,Old,no,0,1364
102,PSE-140,Test,none,Colour_Word,lemon,Old,no,0,1015
2,PSE-141,Study,glove,BW_Picture,none,none,none,-1,-1
4,PSE-141,Study,wagon,BW_Picture,none,none,none,-1,-1
8,PSE-141,Study,monkey,BW_Picture,none,none,none,-1,-1
15,PSE-141,Study,grapes,BW_Picture,none,none,none,-1,-1
16,PSE-141,Study,tortoise,BW_Picture,none,none,none,-1,-1
19,PSE-141,Study,sun,BW_Picture,none,none,none,-1,-1
21,PSE-141,Study,arrow,BW_Picture,none,none,none,-1,-1
27,PSE-141,Study,chair,BW_Picture,none,none,none,-1,-1
30,PSE-141,Study,strawberry,BW_Picture,none,none,none,-1,-1
40,PSE-141,Study,flower,BW_Picture,none,none,none,-1,-1
3,PSE-141,Study,doll,BW_Word,none,none,none,-1,-1
9,PSE-141,Study,pumpkin,BW_Word,none,none,none,-1,-1
17,PSE-141,Study,finger,BW_Word,none,none,none,-1,-1
20,PSE-141,Study,boot,BW_Word,none,none,none,-1,-1
24,PSE-141,Study,stove,BW_Word,none,none,none,-1,-1
26,PSE-141,Study,shoe,BW_Word,none,none,none,-1,-1
31,PSE-141,Study,nose,BW_Word,none,none,none,-1,-1
32,PSE-141,Study,flag,BW_Word,none,none,none,-1,-1
35,PSE-141,Study,deer,BW_Word,none,none,none,-1,-1
38,PSE-141,Study,leopard,BW_Word,none,none,none,-1,-1
6,PSE-141,Study,belt,Colour_Picture,none,none,none,-1,-1
7,PSE-141,Study,tomato,Colour_Picture,none,none,none,-1,-1
11,PSE-141,Study,table,Colour_Picture,none,none,none,-1,-1
12,PSE-141,Study,pineapple,Colour_Picture,none,none,none,-1,-1
13,PSE-141,Study,cow,Colour_Picture,none,none,none,-1,-1
18,PSE-141,Study,chicken,Colour_Picture,none,none,none,-1,-1
23,PSE-141,Study,corn,Colour_Picture,none,none,none,-1,-1
29,PSE-141,Study,harp,Colour_Picture,none,none,none,-1,-1
33,PSE-141,Study,grasshopper,Colour_Picture,none,none,none,-1,-1
34,PSE-141,Study,dog,Colour_Picture,none,none,none,-1,-1
1,PSE-141,Study,tiger,Colour_Word,none,none,none,-1,-1
5,PSE-141,Study,guitar,Colour_Word,none,none,none,-1,-1
10,PSE-141,Study,church,Colour_Word,none,none,none,-1,-1
14,PSE-141,Study,pig,Colour_Word,none,none,none,-1,-1
22,PSE-141,Study,ruler,Colour_Word,none,none,none,-1,-1
25,PSE-141,Study,bow,Colour_Word,none,none,none,-1,-1
28,PSE-141,Study,saw,Colour_Word,none,none,none,-1,-1
36,PSE-141,Study,owl,Colour_Word,none,none,none,-1,-1
37,PSE-141,Study,ball,Colour_Word,none,none,none,-1,-1
39,PSE-141,Study,snake,Colour_Word,none,none,none,-1,-1
47,PSE-141,Test,none,BW_Picture,sled,New,no,1,1792
52,PSE-141,Test,none,BW_Picture,bicycle,New,no,1,1704
57,PSE-141,Test,none,BW_Picture,racoon,New,no,1,2016
59,PSE-141,Test,none,BW_Picture,stool,New,yes,0,4833
69,PSE-141,Test,none,BW_Picture,hammer,New,no,1,11105
81,PSE-141,Test,none,BW_Picture,dress,New,no,1,4359
83,PSE-141,Test,none,BW_Picture,motorcycle,New,no,1,2007
102,PSE-141,Test,none,BW_Picture,bell,New,no,1,2447
103,PSE-141,Test,none,BW_Picture,lettuce,New,no,1,1024
111,PSE-141,Test,none,BW_Picture,ear,New,no,1,1306
49,PSE-141,Test,none,BW_Picture,monkey,Old,yes,1,976
58,PSE-141,Test,none,BW_Picture,grapes,Old,yes,1,842
67,PSE-141,Test,none,BW_Picture,wagon,Old,yes,1,891
73,PSE-141,Test,none,BW_Picture,tortoise,Old,yes,1,872
74,PSE-141,Test,none,BW_Picture,sun,Old,yes,1,767
78,PSE-141,Test,none,BW_Picture,arrow,Old,yes,1,800
79,PSE-141,Test,none,BW_Picture,glove,Old,yes,1,848
90,PSE-141,Test,none,BW_Picture,strawberry,Old,yes,1,1007
98,PSE-141,Test,none,BW_Picture,chair,Old,yes,1,871
107,PSE-141,Test,none,BW_Picture,flower,Old,yes,1,1447
44,PSE-141,Test,none,BW_Word,watch,New,no,1,1665
50,PSE-141,Test,none,BW_Word,iron,New,no,1,3169
54,PSE-141,Test,none,BW_Word,lion,New,yes,0,1384
64,PSE-141,Test,none,BW_Word,fox,New,yes,0,2896
91,PSE-141,Test,none,BW_Word,penguin,New,yes,0,1088
97,PSE-141,Test,none,BW_Word,heart,New,no,1,2680
105,PSE-141,Test,none,BW_Word,thimble,New,no,1,1616
110,PSE-141,Test,none,BW_Word,brush,New,no,1,1489
112,PSE-141,Test,none,BW_Word,helicopter,New,no,1,1820
114,PSE-141,Test,none,BW_Word,window,New,no,1,1240
42,PSE-141,Test,none,BW_Word,doll,Old,yes,1,1391
56,PSE-141,Test,none,BW_Word,pumpkin,Old,yes,1,857
66,PSE-141,Test,none,BW_Word,finger,Old,yes,1,1784
70,PSE-141,Test,none,BW_Word,boot,Old,yes,1,1302
85,PSE-141,Test,none,BW_Word,stove,Old,yes,1,816
93,PSE-141,Test,none,BW_Word,nose,Old,yes,1,1169
95,PSE-141,Test,none,BW_Word,flag,Old,yes,1,2024
99,PSE-141,Test,none,BW_Word,shoe,Old,yes,1,1235
109,PSE-141,Test,none,BW_Word,leopard,Old,yes,1,825
113,PSE-141,Test,none,BW_Word,deer,Old,yes,1,1105
41,PSE-141,Test,none,Colour_Picture,asparagus,New,no,1,2183
43,PSE-141,Test,none,Colour_Picture,foot,New,no,1,1863
71,PSE-141,Test,none,Colour_Picture,caterpillar,New,no,1,1713
84,PSE-141,Test,none,Colour_Picture,lemon,New,no,1,1240
88,PSE-141,Test,none,Colour_Picture,tie,New,no,1,1034
115,PSE-141,Test,none,Colour_Picture,frog,New,no,1,1099
116,PSE-141,Test,none,Colour_Picture,lock,New,no,1,1057
118,PSE-141,Test,none,Colour_Picture,bed,New,no,1,1015
119,PSE-141,Test,none,Colour_Picture,sweater,New,no,1,1384
120,PSE-141,Test,none,Colour_Picture,umbrella,New,no,1,1113
45,PSE-141,Test,none,Colour_Picture,belt,Old,yes,1,945
65,PSE-141,Test,none,Colour_Picture,cow,Old,yes,1,1591
75,PSE-141,Test,none,Colour_Picture,tomato,Old,yes,1,1289
82,PSE-141,Test,none,Colour_Picture,chicken,Old,yes,1,1585
87,PSE-141,Test,none,Colour_Picture,pineapple,Old,yes,1,807
94,PSE-141,Test,none,Colour_Picture,table,Old,yes,1,800
96,PSE-141,Test,none,Colour_Picture,grasshopper,Old,yes,1,1026
100,PSE-141,Test,none,Colour_Picture,corn,Old,yes,1,1250
108,PSE-141,Test,none,Colour_Picture,harp,Old,yes,1,897
117,PSE-141,Test,none,Colour_Picture,dog,Old,yes,1,865
51,PSE-141,Test,none,Colour_Word,house,New,no,1,2215
53,PSE-141,Test,none,Colour_Word,cherry,New,no,1,1057
55,PSE-141,Test,none,Colour_Word,hand,New,no,1,4007
60,PSE-141,Test,none,Colour_Word,spool,New,no,1,1879
62,PSE-141,Test,none,Colour_Word,bottle,New,no,1,3840
72,PSE-141,Test,none,Colour_Word,banana,New,yes,0,1864
76,PSE-141,Test,none,Colour_Word,couch,New,no,1,2071
86,PSE-141,Test,none,Colour_Word,purse,New,no,1,1600
89,PSE-141,Test,none,Colour_Word,suitcase,New,no,1,1112
101,PSE-141,Test,none,Colour_Word,star,New,no,1,1715
46,PSE-141,Test,none,Colour_Word,church,Old,yes,1,903
48,PSE-141,Test,none,Colour_Word,tiger,Old,yes,1,983
61,PSE-141,Test,none,Colour_Word,pig,Old,yes,1,823
63,PSE-141,Test,none,Colour_Word,ruler,Old,yes,1,1896
68,PSE-141,Test,none,Colour_Word,guitar,Old,yes,1,898
77,PSE-141,Test,none,Colour_Word,bow,Old,yes,1,906
80,PSE-141,Test,none,Colour_Word,owl,Old,yes,1,850
92,PSE-141,Test,none,Colour_Word,saw,Old,yes,1,896
104,PSE-141,Test,none,Colour_Word,ball,Old,no,0,1425
106,PSE-141,Test,none,Colour_Word,snake,Old,yes,1,962
2,PSE-142,Study,glove,BW_Picture,none,none,none,-1,-1
5,PSE-142,Study,bird,BW_Picture,none,none,none,-1,-1
8,PSE-142,Study,drum,BW_Picture,none,none,none,-1,-1
9,PSE-142,Study,envelope,BW_Picture,none,none,none,-1,-1
11,PSE-142,Study,ruler,BW_Picture,none,none,none,-1,-1
24,PSE-142,Study,lamp,BW_Picture,none,none,none,-1,-1
26,PSE-142,Study,tomato,BW_Picture,none,none,none,-1,-1
33,PSE-142,Study,foot,BW_Picture,none,none,none,-1,-1
35,PSE-142,Study,chisel,BW_Picture,none,none,none,-1,-1
36,PSE-142,Study,lock,BW_Picture,none,none,none,-1,-1
6,PSE-142,Study,trumpet,BW_Word,none,none,none,-1,-1
13,PSE-142,Study,doll,BW_Word,none,none,none,-1,-1
16,PSE-142,Study,balloon,BW_Word,none,none,none,-1,-1
19,PSE-142,Study,bus,BW_Word,none,none,none,-1,-1
21,PSE-142,Study,box,BW_Word,none,none,none,-1,-1
29,PSE-142,Study,axe,BW_Word,none,none,none,-1,-1
30,PSE-142,Study,pitcher,BW_Word,none,none,none,-1,-1
38,PSE-142,Study,wagon,BW_Word,none,none,none,-1,-1
39,PSE-142,Study,grapes,BW_Word,none,none,none,-1,-1
40,PSE-142,Study,pig,BW_Word,none,none,none,-1,-1
1,PSE-142,Study,sailboat,Colour_Picture,none,none,none,-1,-1
4,PSE-142,Study,fox,Colour_Picture,none,none,none,-1,-1
7,PSE-142,Study,alligator,Colour_Picture,none,none,none,-1,-1
12,PSE-142,Study,salt,Colour_Picture,none,none,none,-1,-1
17,PSE-142,Study,car,Colour_Picture,none,none,none,-1,-1
23,PSE-142,Study,sun,Colour_Picture,none,none,none,-1,-1
25,PSE-142,Study,onion,Colour_Picture,none,none,none,-1,-1
27,PSE-142,Study,paintbrush,Colour_Picture,none,none,none,-1,-1
32,PSE-142,Study,shirt,Colour_Picture,none,none,none,-1,-1
34,PSE-142,Study,snake,Colour_Picture,none,none,none,-1,-1
3,PSE-142,Study,guitar,Colour_Word,none,none,none,-1,-1
10,PSE-142,Study,flower,Colour_Word,none,none,none,-1,-1
14,PSE-142,Study,carrot,Colour_Word,none,none,none,-1,-1
15,PSE-142,Study,pepper,Colour_Word,none,none,none,-1,-1
18,PSE-142,Study,caterpillar,Colour_Word,none,none,none,-1,-1
20,PSE-142,Study,crown,Colour_Word,none,none,none,-1,-1
22,PSE-142,Study,camel,Colour_Word,none,none,none,-1,-1
28,PSE-142,Study,truck,Colour_Word,none,none,none,-1,-1
31,PSE-142,Study,mitten,Colour_Word,none,none,none,-1,-1
37,PSE-142,Study,racoon,Colour_Word,none,none,none,-1,-1
52,PSE-142,Test,none,BW_Picture,harp,New,yes,0,1905
60,PSE-142,Test,none,BW_Picture,finger,New,yes,0,1474
69,PSE-142,Test,none,BW_Picture,bell,New,yes,0,1682
80,PSE-142,Test,none,BW_Picture,basket,New,no,1,1555
87,PSE-142,Test,none,BW_Picture,couch,New,yes,0,2433
103,PSE-142,Test,none,BW_Picture,button,New,no,1,1826
110,PSE-142,Test,none,BW_Picture,heart,New,yes,0,1153
112,PSE-142,Test,none,BW_Picture,thimble,New,yes,0,1103
115,PSE-142,Test,none,BW_Picture,lips,New,yes,0,1339
118,PSE-142,Test,none,BW_Picture,apple,New,yes,0,1359
53,PSE-142,Test,none,BW_Picture,ruler,Old,no,0,1328
59,PSE-142,Test,none,BW_Picture,glove,Old,no,0,949
71,PSE-142,Test,none,BW_Picture,envelope,Old,no,0,1193
72,PSE-142,Test,none,BW_Picture,drum,Old,yes,1,985
77,PSE-142,Test,none,BW_Picture,tomato,Old,yes,1,919
82,PSE-142,Test,none,BW_Picture,lamp,Old,yes,1,1116
95,PSE-142,Test,none,BW_Picture,bird,Old,yes,1,958
106,PSE-142,Test,none,BW_Picture,chisel,Old,yes,1,782
108,PSE-142,Test,none,BW_Picture,foot,Old,yes,1,731
113,PSE-142,Test,none,BW_Picture,lock,Old,yes,1,987
45,PSE-142,Test,none,BW_Word,cherry,New,no,1,1632
47,PSE-142,Test,none,BW_Word,umbrella,New,no,1,1701
50,PSE-142,Test,none,BW_Word,knife,New,no,1,1338
55,PSE-142,Test,none,BW_Word,ring,New,yes,0,1613
75,PSE-142,Test,none,BW_Word,fish,New,yes,0,1271
81,PSE-142,Test,none,BW_Word,tortoise,New,no,1,1450
91,PSE-142,Test,none,BW_Word,nose,New,yes,0,804
96,PSE-142,Test,none,BW_Word,asparagus,New,yes,0,1278
98,PSE-142,Test,none,BW_Word,lion,New,yes,0,1068
99,PSE-142,Test,none,BW_Word,kite,New,yes,0,1046
41,PSE-142,Test,none,BW_Word,box,Old,yes,1,3950
57,PSE-142,Test,none,BW_Word,balloon,Old,yes,1,1183
62,PSE-142,Test,none,BW_Word,doll,Old,no,0,1095
66,PSE-142,Test,none,BW_Word,bus,Old,no,0,1212
85,PSE-142,Test,none,BW_Word,grapes,Old,yes,1,1289
94,PSE-142,Test,none,BW_Word,trumpet,Old,yes,1,754
104,PSE-142,Test,none,BW_Word,axe,Old,yes,1,938
107,PSE-142,Test,none,BW_Word,pig,Old,yes,1,763
114,PSE-142,Test,none,BW_Word,wagon,Old,yes,1,1144
120,PSE-142,Test,none,BW_Word,pitcher,Old,yes,1,664
44,PSE-142,Test,none,Colour_Picture,sandwich,New,yes,0,2903
48,PSE-142,Test,none,Colour_Picture,candle,New,no,1,1817
49,PSE-142,Test,none,Colour_Picture,pear,New,yes,0,1855
58,PSE-142,Test,none,Colour_Picture,bicycle,New,yes,0,1847
61,PSE-142,Test,none,Colour_Picture,train,New,yes,0,1720
68,PSE-142,Test,none,Colour_Picture,horse,New,yes,0,2308
79,PSE-142,Test,none,Colour_Picture,potato,New,yes,0,1641
92,PSE-142,Test,none,Colour_Picture,glass,New,yes,0,1892
116,PSE-142,Test,none,Colour_Picture,bat,New,yes,0,1280
117,PSE-142,Test,none,Colour_Picture,cap,New,yes,0,1473
42,PSE-142,Test,none,Colour_Picture,fox,Old,yes,1,2844
54,PSE-142,Test,none,Colour_Picture,sailboat,Old,yes,1,968
70,PSE-142,Test,none,Colour_Picture,alligator,Old,yes,1,1122
73,PSE-142,Test,none,Colour_Picture,salt,Old,yes,1,930
74,PSE-142,Test,none,Colour_Picture,car,Old,yes,1,899
78,PSE-142,Test,none,Colour_Picture,paintbrush,Old,yes,1,988
89,PSE-142,Test,none,Colour_Picture,onion,Old,yes,1,781
90,PSE-142,Test,none,Colour_Picture,sun,Old,yes,1,724
101,PSE-142,Test,none,Colour_Picture,shirt,Old,yes,1,842
111,PSE-142,Test,none,Colour_Picture,snake,Old,yes,1,1203
46,PSE-142,Test,none,Colour_Word,strawberry,New,no,1,1750
51,PSE-142,Test,none,Colour_Word,peacock,New,yes,0,1768
56,PSE-142,Test,none,Colour_Word,pen,New,yes,0,2388
63,PSE-142,Test,none,Colour_Word,bowl,New,yes,0,1397
83,PSE-142,Test,none,Colour_Word,refrigerator,New,yes,0,1613
84,PSE-142,Test,none,Colour_Word,screwdriver,New,yes,0,2442
93,PSE-142,Test,none,Colour_Word,stool,New,yes,0,1104
97,PSE-142,Test,none,Colour_Word,monkey,New,yes,0,1467
100,PSE-142,Test,none,Colour_Word,chair,New,yes,0,1583
119,PSE-142,Test,none,Colour_Word,corn,New,yes,0,1712
43,PSE-142,Test,none,Colour_Word,flower,Old,no,0,1428
64,PSE-142,Test,none,Colour_Word,guitar,Old,yes,1,1054
65,PSE-142,Test,none,Colour_Word,carrot,Old,yes,1,1017
67,PSE-142,Test,none,Colour_Word,pepper,Old,yes,1,995
76,PSE-142,Test,none,Colour_Word,caterpillar,Old,yes,1,1133
86,PSE-142,Test,none,Colour_Word,crown,Old,yes,1,967
88,PSE-142,Test,none,Colour_Word,truck,Old,yes,1,909
102,PSE-142,Test,none,Colour_Word,camel,Old,yes,1,966
105,PSE-142,Test,none,Colour_Word,racoon,Old,yes,1,820
109,PSE-142,Test,none,Colour_Word,mitten,Old,yes,1,724
1,PSE-143,Study,owl,BW_Picture,none,none,none,-1,-1
3,PSE-143,Study,tortoise,BW_Picture,none,none,none,-1,-1
5,PSE-143,Study,lightbulb,BW_Picture,none,none,none,-1,-1
13,PSE-143,Study,sun,BW_Picture,none,none,none,-1,-1
20,PSE-143,Study,horse,BW_Picture,none,none,none,-1,-1
22,PSE-143,Study,purse,BW_Picture,none,none,none,-1,-1
24,PSE-143,Study,deer,BW_Picture,none,none,none,-1,-1
27,PSE-143,Study,spool,BW_Picture,none,none,none,-1,-1
28,PSE-143,Study,goat,BW_Picture,none,none,none,-1,-1
36,PSE-143,Study,bear,BW_Picture,none,none,none,-1,-1
7,PSE-143,Study,cap,BW_Word,none,none,none,-1,-1
8,PSE-143,Study,tie,BW_Word,none,none,none,-1,-1
10,PSE-143,Study,axe,BW_Word,none,none,none,-1,-1
17,PSE-143,Study,umbrella,BW_Word,none,none,none,-1,-1
23,PSE-143,Study,arrow,BW_Word,none,none,none,-1,-1
25,PSE-143,Study,shirt,BW_Word,none,none,none,-1,-1
29,PSE-143,Study,train,BW_Word,none,none,none,-1,-1
31,PSE-143,Study,coat,BW_Word,none,none,none,-1,-1
35,PSE-143,Study,finger,BW_Word,none,none,none,-1,-1
39,PSE-143,Study,kangaroo,BW_Word,none,none,none,-1,-1
9,PSE-143,Study,church,Colour_Picture,none,none,none,-1,-1
11,PSE-143,Study,balloon,Colour_Picture,none,none,none,-1,-1
12,PSE-143,Study,lemon,Colour_Picture,none,none,none,-1,-1
15,PSE-143,Study,box,Colour_Picture,none,none,none,-1,-1
18,PSE-143,Study,button,Colour_Picture,none,none,none,-1,-1
19,PSE-143,Study,ball,Colour_Picture,none,none,none,-1,-1
26,PSE-143,Study,peanut,Colour_Picture,none,none,none,-1,-1
32,PSE-143,Study,sled,Colour_Picture,none,none,none,-1,-1
33,PSE-143,Study,fox,Colour_Picture,none,none,none,-1,-1
38,PSE-143,Study,snake,Colour_Picture,none,none,none,-1,-1
2,PSE-143,Study,basket,Colour_Word,none,none,none,-1,-1
4,PSE-143,Study,watermelon,Colour_Word,none,none,none,-1,-1
6,PSE-143,Study,trumpet,Colour_Word,none,none,none,-1,-1
14,PSE-143,Study,lettuce,Colour_Word,none,none,none,-1,-1
16,PSE-143,Study,television,Colour_Word,none,none,none,-1,-1
21,PSE-143,Study,helicopter,Colour_Word,none,none,none,-1,-1
30,PSE-143,Study,clock,Colour_Word,none,none,none,-1,-1
34,PSE-143,Study,knife,Colour_Word,none,none,none,-1,-1
37,PSE-143,Study,screwdriver,Colour_Word,none,none,none,-1,-1
40,PSE-143,Study,sock,Colour_Word,none,none,none,-1,-1
43,PSE-143,Test,none,BW_Picture,barn,New,no,1,4021
44,PSE-143,Test,none,BW_Picture,hammer,New,no,1,3324
56,PSE-143,Test,none,BW_Picture,bell,New,no,1,2124
71,PSE-143,Test,none,BW_Picture,alligator,New,no,1,2646
72,PSE-143,Test,none,BW_Picture,car,New,no,1,2203
76,PSE-143,Test,none,BW_Picture,cow,New,no,1,2232
86,PSE-143,Test,none,BW_Picture,celery,New,no,1,1634
89,PSE-143,Test,none,BW_Picture,pencil,New,no,1,2007
97,PSE-143,Test,none,BW_Picture,pineapple,New,no,1,1600
99,PSE-143,Test,none,BW_Picture,cake,New,no,1,1366
45,PSE-143,Test,none,BW_Picture,owl,Old,yes,1,1712
48,PSE-143,Test,none,BW_Picture,lightbulb,Old,yes,1,1418
51,PSE-143,Test,none,BW_Picture,tortoise,Old,yes,1,1252
53,PSE-143,Test,none,BW_Picture,sun,Old,yes,1,1190
54,PSE-143,Test,none,BW_Picture,horse,Old,yes,1,1373
57,PSE-143,Test,none,BW_Picture,purse,Old,yes,1,1703
69,PSE-143,Test,none,BW_Picture,spool,Old,yes,1,1276
87,PSE-143,Test,none,BW_Picture,deer,Old,yes,1,1525
88,PSE-143,Test,none,BW_Picture,goat,Old,yes,1,1126
104,PSE-143,Test,none,BW_Picture,bear,Old,no,0,1258
66,PSE-143,Test,none,BW_Word,envelope,New,yes,0,2116
68,PSE-143,Test,none,BW_Word,cherry,New,no,1,1800
79,PSE-143,Test,none,BW_Word,book,New,no,1,1896
90,PSE-143,Test,none,BW_Word,squirrel,New,no,1,1366
92,PSE-143,Test,none,BW_Word,belt,New,no,1,1714
101,PSE-143,Test,none,BW_Word,onion,New,no,1,1283
106,PSE-143,Test,none,BW_Word,tomato,New,no,1,1855
111,PSE-143,Test,none,BW_Word,house,New,no,1,3434
115,PSE-143,Test,none,BW_Word,toothbrush,New,no,1,1298
117,PSE-143,Test,none,BW_Word,pig,New,no,1,1314
49,PSE-143,Test,none,BW_Word,axe,Old,yes,1,1784
63,PSE-143,Test,none,BW_Word,cap,Old,yes,1,1268
78,PSE-143,Test,none,BW_Word,umbrella,Old,yes,1,1404
80,PSE-143,Test,none,BW_Word,tie,Old,no,0,1635
81,PSE-143,Test,none,BW_Word,coat,Old,yes,1,1451
100,PSE-143,Test,none,BW_Word,arrow,Old,no,0,1155
107,PSE-143,Test,none,BW_Word,shirt,Old,no,0,1656
118,PSE-143,Test,none,BW_Word,train,Old,no,0,1225
119,PSE-143,Test,none,BW_Word,kangaroo,Old,yes,1,1194
120,PSE-143,Test,none,BW_Word,finger,Old,no,0,1292
59,PSE-143,Test,none,Colour_Picture,leaf,New,no,1,2219
60,PSE-143,Test,none,Colour_Picture,bird,New,no,1,1506
64,PSE-143,Test,none,Colour_Picture,table,New,no,1,4735
65,PSE-143,Test,none,Colour_Picture,butterfly,New,no,1,2480
74,PSE-143,Test,none,Colour_Picture,bat,New,no,1,1308
75,PSE-143,Test,none,Colour_Picture,harp,New,no,1,1303
84,PSE-143,Test,none,Colour_Picture,rooster,New,no,1,1746
94,PSE-143,Test,none,Colour_Picture,pen,New,no,1,1556
96,PSE-143,Test,none,Colour_Picture,tree,New,no,1,2316
114,PSE-143,Test,none,Colour_Picture,chisel,New,no,1,2011
55,PSE-143,Test,none,Colour_Picture,church,Old,yes,1,1515
58,PSE-143,Test,none,Colour_Picture,box,Old,no,0,3320
61,PSE-143,Test,none,Colour_Picture,balloon,Old,yes,1,1332
62,PSE-143,Test,none,Colour_Picture,lemon,Old,yes,1,1063
82,PSE-143,Test,none,Colour_Picture,ball,Old,yes,1,1295
83,PSE-143,Test,none,Colour_Picture,sled,Old,no,0,1681
95,PSE-143,Test,none,Colour_Picture,peanut,Old,yes,1,1442
103,PSE-143,Test,none,Colour_Picture,fox,Old,no,0,1298
108,PSE-143,Test,none,Colour_Picture,button,Old,no,0,1068
109,PSE-143,Test,none,Colour_Picture,snake,Old,no,0,1173
41,PSE-143,Test,none,Colour_Word,fish,New,no,1,3421
42,PSE-143,Test,none,Colour_Word,foot,New,no,1,4147
46,PSE-143,Test,none,Colour_Word,tiger,New,no,1,2773
77,PSE-143,Test,none,Colour_Word,chair,New,no,1,3181
85,PSE-143,Test,none,Colour_Word,dress,New,no,1,1879
93,PSE-143,Test,none,Colour_Word,candle,New,no,1,1835
98,PSE-143,Test,none,Colour_Word,giraffe,New,no,1,2425
102,PSE-143,Test,none,Colour_Word,eagle,New,yes,0,1894
105,PSE-143,Test,none,Colour_Word,bread,New,yes,0,4264
116,PSE-143,Test,none,Colour_Word,kite,New,no,1,1193
47,PSE-143,Test,none,Colour_Word,watermelon,Old,yes,1,1742
50,PSE-143,Test,none,Colour_Word,basket,Old,yes,1,2450
52,PSE-143,Test,none,Colour_Word,lettuce,Old,yes,1,1166
67,PSE-143,Test,none,Colour_Word,trumpet,Old,yes,1,1311
70,PSE-143,Test,none,Colour_Word,clock,Old,yes,1,1218
73,PSE-143,Test,none,Colour_Word,television,Old,yes,1,1129
91,PSE-143,Test,none,Colour_Word,helicopter,Old,no,0,1917
110,PSE-143,Test,none,Colour_Word,sock,Old,yes,1,1156
112,PSE-143,Test,none,Colour_Word,knife,Old,yes,1,1259
113,PSE-143,Test,none,Colour_Word,screwdriver,Old,yes,1,958
3,PSE-144,Study,orange,BW_Picture,none,none,none,-1,-1
5,PSE-144,Study,pepper,BW_Picture,none,none,none,-1,-1
11,PSE-144,Study,dresser,BW_Picture,none,none,none,-1,-1
14,PSE-144,Study,tiger,BW_Picture,none,none,none,-1,-1
19,PSE-144,Study,eagle,BW_Picture,none,none,none,-1,-1
24,PSE-144,Study,fox,BW_Picture,none,none,none,-1,-1
27,PSE-144,Study,stove,BW_Picture,none,none,none,-1,-1
28,PSE-144,Study,axe,BW_Picture,none,none,none,-1,-1
33,PSE-144,Study,dog,BW_Picture,none,none,none,-1,-1
39,PSE-144,Study,watermelon,BW_Picture,none,none,none,-1,-1
8,PSE-144,Study,basket,BW_Word,none,none,none,-1,-1
13,PSE-144,Study,church,BW_Word,none,none,none,-1,-1
15,PSE-144,Study,corn,BW_Word,none,none,none,-1,-1
17,PSE-144,Study,finger,BW_Word,none,none,none,-1,-1
25,PSE-144,Study,desk,BW_Word,none,none,none,-1,-1
26,PSE-144,Study,motorcycle,BW_Word,none,none,none,-1,-1
31,PSE-144,Study,bow,BW_Word,none,none,none,-1,-1
34,PSE-144,Study,cow,BW_Word,none,none,none,-1,-1
35,PSE-144,Study,glove,BW_Word,none,none,none,-1,-1
40,PSE-144,Study,alligator,BW_Word,none,none,none,-1,-1
2,PSE-144,Study,ear,Colour_Picture,none,none,none,-1,-1
6,PSE-144,Study,kangaroo,Colour_Picture,none,none,none,-1,-1
10,PSE-144,Study,box,Colour_Picture,none,none,none,-1,-1
16,PSE-144,Study,duck,Colour_Picture,none,none,none,-1,-1
18,PSE-144,Study,peanut,Colour_Picture,none,none,none,-1,-1
20,PSE-144,Study,book,Colour_Picture,none,none,none,-1,-1
21,PSE-144,Study,chisel,Colour_Picture,none,none,none,-1,-1
29,PSE-144,Study,lightbulb,Colour_Picture,none,none,none,-1,-1
30,PSE-144,Study,racoon,Colour_Picture,none,none,none,-1,-1
36,PSE-144,Study,lion,Colour_Picture,none,none,none,-1,-1
1,PSE-144,Study,arrow,Colour_Word,none,none,none,-1,-1
4,PSE-144,Study,pear,Colour_Word,none,none,none,-1,-1
7,PSE-144,Study,bus,Colour_Word,none,none,none,-1,-1
9,PSE-144,Study,rabbit,Colour_Word,none,none,none,-1,-1
12,PSE-144,Study,sailboat,Colour_Word,none,none,none,-1,-1
22,PSE-144,Study,lettuce,Colour_Word,none,none,none,-1,-1
23,PSE-144,Study,watch,Colour_Word,none,none,none,-1,-1
32,PSE-144,Study,ruler,Colour_Word,none,none,none,-1,-1
37,PSE-144,Study,screwdriver,Colour_Word,none,none,none,-1,-1
38,PSE-144,Study,strawberry,Colour_Word,none,none,none,-1,-1
50,PSE-144,Test,none,BW_Picture,pen,New,no,1,1487
51,PSE-144,Test,none,BW_Picture,chair,New,no,1,1444
56,PSE-144,Test,none,BW_Picture,clock,New,no,1,2474
63,PSE-144,Test,none,BW_Picture,television,New,no,1,1857
70,PSE-144,Test,none,BW_Picture,kettle,New,no,1,1377
76,PSE-144,Test,none,BW_Picture,artichoke,New,no,1,2826
98,PSE-144,Test,none,BW_Picture,horse,New,no,1,1820
102,PSE-144,Test,none,BW_Picture,sled,New,no,1,2742
112,PSE-144,Test,none,BW_Picture,balloon,New,no,1,2609
120,PSE-144,Test,none,BW_Picture,lemon,New,no,1,3012
42,PSE-144,Test,none,BW_Picture,orange,Old,yes,1,1337
65,PSE-144,Test,none,BW_Picture,pepper,Old,yes,1,1217
75,PSE-144,Test,none,BW_Picture,dresser,Old,yes,1,1402
82,PSE-144,Test,none,BW_Picture,tiger,Old,yes,1,1176
85,PSE-144,Test,none,BW_Picture,fox,Old,yes,1,1177
87,PSE-144,Test,none,BW_Picture,eagle,Old,yes,1,1218
89,PSE-144,Test,none,BW_Picture,stove,Old,yes,1,1271
91,PSE-144,Test,none,BW_Picture,watermelon,Old,yes,1,1176
105,PSE-144,Test,none,BW_Picture,dog,Old,yes,1,1295
110,PSE-144,Test,none,BW_Picture,axe,Old,yes,1,1296
43,PSE-144,Test,none,BW_Word,asparagus,New,no,1,3759
53,PSE-144,Test,none,BW_Word,iron,New,no,1,1444
62,PSE-144,Test,none,BW_Word,monkey,New,no,1,2247
73,PSE-144,Test,none,BW_Word,flower,New,no,1,2233
80,PSE-144,Test,none,BW_Word,pitcher,New,no,1,1443
88,PSE-144,Test,none,BW_Word,tortoise,New,no,1,3046
103,PSE-144,Test,none,BW_Word,spool,New,no,1,1806
104,PSE-144,Test,none,BW_Word,ball,New,no,1,1511
108,PSE-144,Test,none,BW_Word,mitten,New,no,1,2617
116,PSE-144,Test,none,BW_Word,butterfly,New,no,1,4299
45,PSE-144,Test,none,BW_Word,basket,Old,no,0,1417
55,PSE-144,Test,none,BW_Word,church,Old,yes,1,1672
81,PSE-144,Test,none,BW_Word,finger,Old,yes,1,1282
83,PSE-144,Test,none,BW_Word,corn,Old,yes,1,1296
84,PSE-144,Test,none,BW_Word,desk,Old,yes,1,1256
92,PSE-144,Test,none,BW_Word,motorcycle,Old,yes,1,1283
95,PSE-144,Test,none,BW_Word,cow,Old,yes,1,1177
99,PSE-144,Test,none,BW_Word,bow,Old,yes,1,1297
106,PSE-144,Test,none,BW_Word,glove,Old,no,0,1190
113,PSE-144,Test,none,BW_Word,alligator,Old,yes,1,2836
64,PSE-144,Test,none,Colour_Picture,bird,New,no,1,1269
66,PSE-144,Test,none,Colour_Picture,star,New,no,1,1443
68,PSE-144,Test,none,Colour_Picture,shirt,New,no,1,1644
79,PSE-144,Test,none,Colour_Picture,celery,New,no,1,2420
90,PSE-144,Test,none,Colour_Picture,sock,New,no,1,2523
93,PSE-144,Test,none,Colour_Picture,goat,New,no,1,3236
97,PSE-144,Test,none,Colour_Picture,owl,New,no,1,3437
100,PSE-144,Test,none,Colour_Picture,envelope,New,no,1,2393
109,PSE-144,Test,none,Colour_Picture,table,New,no,1,2595
117,PSE-144,Test,none,Colour_Picture,lobster,New,no,1,2247
57,PSE-144,Test,none,Colour_Picture,box,Old,yes,1,1284
59,PSE-144,Test,none,Colour_Picture,kangaroo,Old,yes,1,1177
61,PSE-144,Test,none,Colour_Picture,ear,Old,yes,1,1190
72,PSE-144,Test,none,Colour_Picture,duck,Old,yes,1,1685
86,PSE-144,Test,none,Colour_Picture,book,Old,yes,1,1337
94,PSE-144,Test,none,Colour_Picture,chisel,Old,yes,1,1297
96,PSE-144,Test,none,Colour_Picture,peanut,Old,yes,1,1298
101,PSE-144,Test,none,Colour_Picture,racoon,Old,yes,1,1257
118,PSE-144,Test,none,Colour_Picture,lightbulb,Old,yes,1,1500
119,PSE-144,Test,none,Colour_Picture,lion,Old,yes,1,1349
44,PSE-144,Test,none,Colour_Word,refrigerator,New,no,1,4183
48,PSE-144,Test,none,Colour_Word,couch,New,no,1,11022
49,PSE-144,Test,none,Colour_Word,squirrel,New,no,1,2843
52,PSE-144,Test,none,Colour_Word,button,New,no,1,1578
54,PSE-144,Test,none,Colour_Word,leopard,New,no,1,1885
69,PSE-144,Test,none,Colour_Word,door,New,no,1,1901
77,PSE-144,Test,none,Colour_Word,pumpkin,New,no,1,5169
78,PSE-144,Test,none,Colour_Word,leaf,New,no,1,2451
111,PSE-144,Test,none,Colour_Word,shoe,New,no,1,2694
114,PSE-144,Test,none,Colour_Word,doll,New,no,1,2484
41,PSE-144,Test,none,Colour_Word,bus,Old,yes,1,1685
46,PSE-144,Test,none,Colour_Word,arrow,Old,yes,1,1325
47,PSE-144,Test,none,Colour_Word,pear,Old,yes,1,1270
58,PSE-144,Test,none,Colour_Word,lettuce,Old,yes,1,4360
60,PSE-144,Test,none,Colour_Word,rabbit,Old,yes,1,1256
67,PSE-144,Test,none,Colour_Word,sailboat,Old,yes,1,1203
71,PSE-144,Test,none,Colour_Word,screwdriver,Old,yes,1,1298
74,PSE-144,Test,none,Colour_Word,strawberry,Old,yes,1,1285
107,PSE-144,Test,none,Colour_Word,watch,Old,yes,1,1831
115,PSE-144,Test,none,Colour_Word,ruler,Old,yes,1,1417
2,PSE-145,Study,pencil,BW_Picture,none,none,none,-1,-1
3,PSE-145,Study,wagon,BW_Picture,none,none,none,-1,-1
5,PSE-145,Study,eagle,BW_Picture,none,none,none,-1,-1
11,PSE-145,Study,vase,BW_Picture,none,none,none,-1,-1
